ax,ay,az,gx,gy,gz,mx,my,mz,label
-0.99,-0.08,-0.17,4.64,-3.91,1.53,-7.19,7.20,-10.90,4
-0.99,-0.07,-0.17,4.82,-2.44,-0.06,-7.47,7.12,-11.72,4
-0.98,-0.07,-0.16,5.25,-2.20,0.98,-7.36,7.64,-10.30,4
-0.99,-0.07,-0.17,5.19,-3.54,2.50,-7.52,7.45,-9.55,4
-0.99,-0.07,-0.17,6.59,-2.75,4.33,-7.73,7.51,-10.00,4
-0.99,-0.07,-0.16,5.13,-2.99,4.21,-7.02,7.39,-9.81,4
-0.99,-0.08,-0.17,6.16,-2.69,4.76,-7.46,7.52,-9.45,4
-0.99,-0.09,-0.17,5.86,-2.50,5.62,-7.59,7.43,-10.23,4
-0.99,-0.09,-0.17,4.09,-2.81,1.83,-7.50,7.82,-10.03,4
-0.98,-0.08,-0.17,4.94,-2.32,0.37,-7.40,7.46,-10.39,4
-0.99,-0.08,-0.17,3.48,-2.56,1.16,-7.53,7.93,-10.82,4
-0.99,-0.08,-0.17,4.21,-2.50,0.31,-7.37,7.76,-9.86,4
-0.98,-0.08,-0.17,3.78,-2.44,0.12,-7.10,7.31,-10.66,4
-0.99,-0.07,-0.17,5.19,-2.38,0.85,-7.89,6.91,-10.12,4
-0.99,-0.08,-0.16,3.48,-2.87,1.04,-7.73,7.67,-9.75,4
-0.98,-0.08,-0.17,3.78,-2.87,0.43,-7.51,7.39,-10.45,4
-0.99,-0.08,-0.16,5.25,-2.50,1.83,-7.73,7.18,-10.34,4
-0.99,-0.08,-0.17,4.52,-3.30,2.75,-7.60,7.69,-9.77,4
-0.99,-0.08,-0.17,5.62,-2.75,2.14,-7.91,8.14,-9.85,4
-0.99,-0.08,-0.16,6.47,-2.44,3.05,-7.51,7.63,-10.27,4
-0.99,-0.07,-0.17,5.43,-3.23,4.15,-7.35,7.68,-9.86,4
-0.99,-0.10,-0.17,6.59,-3.36,6.47,-7.47,7.29,-10.45,4
-0.99,-0.09,-0.17,5.13,-2.75,1.34,-7.10,7.51,-9.89,4
-0.99,-0.08,-0.17,4.15,-1.59,0.31,-7.54,7.60,-9.95,4
-0.99,-0.09,-0.16,3.78,-2.69,1.22,-7.40,7.56,-10.52,4
-0.99,-0.09,-0.17,4.09,-2.99,-0.43,-7.46,8.28,-10.08,4
-0.99,-0.08,-0.17,2.69,-3.23,-0.67,-7.62,7.32,-9.96,4
-0.99,-0.08,-0.17,5.31,-2.62,-0.49,-7.42,7.53,-10.18,4
-0.99,-0.08,-0.17,5.19,-2.50,0.73,-7.69,7.82,-10.44,4
-0.99,-0.07,-0.17,5.80,-2.81,2.08,-7.28,7.21,-10.79,4
-0.99,-0.08,-0.17,4.15,-2.14,3.78,-7.21,7.15,-10.17,4
-0.99,-0.08,-0.17,6.10,-2.32,1.95,-7.53,7.85,-10.85,4
-0.99,-0.08,-0.17,5.80,-2.20,3.60,-7.82,8.06,-10.49,4
-0.98,-0.09,-0.17,5.55,-2.87,5.31,-7.30,7.47,-10.95,4
-0.99,-0.09,-0.17,5.07,-3.23,1.46,-7.24,7.24,-10.17,4
-0.99,-0.09,-0.17,5.19,-2.01,0.79,-7.76,7.71,-9.57,4
-0.99,-0.08,-0.16,4.39,-2.38,0.06,-7.13,7.43,-9.84,4
-0.99,-0.08,-0.17,4.39,-3.05,1.04,-7.24,7.41,-9.68,4
-0.99,-0.08,-0.17,4.88,-2.38,0.92,-7.26,7.46,-10.02,4
-0.99,-0.08,-0.16,4.70,-2.50,1.65,-7.56,7.60,-9.55,4
-0.99,-0.08,-0.17,5.49,-3.30,2.32,-7.24,7.52,-9.83,4
-0.99,-0.08,-0.17,5.62,-2.14,0.79,-7.69,7.65,-9.70,4
-0.99,-0.08,-0.17,5.25,-1.77,1.53,-7.56,7.63,-9.99,4
-0.99,-0.08,-0.16,5.25,-2.44,0.98,-7.53,7.93,-9.78,4
-0.99,-0.09,-0.17,5.68,-1.95,1.65,-7.09,7.46,-10.11,4
-0.99,-0.08,-0.17,5.00,-1.53,0.31,-7.43,7.17,-10.96,4
-0.98,-0.08,-0.16,3.91,-1.59,2.01,-7.68,7.20,-10.53,4
-0.99,-0.08,-0.16,3.72,-3.36,2.75,-7.32,7.62,-10.31,4
-0.99,-0.08,-0.17,5.13,-3.66,3.97,-7.04,7.57,-10.85,4
-0.99,-0.09,-0.16,6.35,-2.20,3.85,-7.51,7.56,-9.62,4
-0.99,-0.09,-0.16,5.07,-1.59,1.28,-7.60,7.85,-10.02,4
-0.99,-0.08,-0.16,4.82,-2.08,1.34,-8.08,7.52,-10.03,4
-0.99,-0.08,-0.16,3.30,-2.38,2.08,-7.57,7.60,-9.41,4
-0.99,-0.09,-0.16,4.58,-3.17,3.11,-7.23,7.60,-9.17,4
-0.99,-0.09,-0.17,3.85,-3.05,1.95,-7.59,7.54,-10.83,4
-0.99,-0.09,-0.17,4.76,-2.50,0.06,-7.86,7.57,-9.55,4
-0.99,-0.08,-0.16,4.58,-2.50,0.12,-7.62,7.12,-10.86,4
-0.99,-0.08,-0.16,4.52,-2.87,0.98,-7.57,7.40,-10.80,4
-0.99,-0.08,-0.16,4.27,-2.75,1.46,-7.65,7.14,-9.40,4
-0.99,-0.08,-0.17,6.41,-2.56,2.56,-7.75,7.63,-10.05,4
-0.99,-0.09,-0.16,3.30,-3.30,3.36,-7.46,7.93,-9.55,4
-0.99,-0.08,-0.16,4.58,-2.69,1.65,-7.41,7.14,-10.51,4
-0.99,-0.08,-0.16,4.46,-2.44,3.17,-7.93,8.00,-9.72,4
-0.99,-0.09,-0.16,4.09,-3.85,4.70,-7.58,7.75,-10.16,4
-0.98,-0.09,-0.17,5.74,-2.44,2.26,-7.45,8.24,-9.91,4
-0.98,-0.09,-0.16,3.91,-1.34,0.49,-7.67,7.93,-9.94,4
-0.99,-0.09,-0.16,5.13,-2.32,1.16,-7.65,7.57,-9.99,4
-0.99,-0.09,-0.16,3.78,-3.05,0.98,-6.90,7.85,-9.97,4
-0.99,-0.08,-0.16,5.92,-1.46,0.85,-7.40,8.26,-10.35,4
-0.99,-0.08,-0.16,4.09,-1.77,1.28,-7.47,7.84,-9.30,4
-0.99,-0.09,-0.16,5.25,-2.87,3.54,-7.80,7.81,-9.55,4
-0.99,-0.09,-0.16,3.91,-2.56,1.83,-7.82,7.63,-10.03,4
-0.99,-0.08,-0.16,5.86,-2.01,1.71,-7.12,7.13,-10.36,4
-0.99,-0.09,-0.16,3.05,-2.69,2.38,-7.40,7.34,-10.29,4
-0.99,-0.09,-0.16,4.94,-2.56,0.67,-7.39,7.68,-10.44,4
-0.99,-0.08,-0.16,3.05,-2.75,0.61,-6.99,8.47,-9.90,4
-0.99,-0.09,-0.16,4.94,-3.05,3.30,-7.69,7.31,-10.90,4
-0.99,-0.09,-0.16,5.07,-2.38,1.10,-7.48,8.01,-9.85,4
-0.99,-0.09,-0.16,4.94,-2.32,0.92,-7.60,8.17,-9.89,4
-0.99,-0.09,-0.16,4.27,-2.50,1.34,-7.65,8.42,-9.56,4
-0.99,-0.09,-0.16,4.39,-2.93,2.01,-7.34,8.35,-9.94,4
-0.99,-0.09,-0.16,5.43,-2.20,2.14,-7.12,7.96,-10.24,4
-0.99,-0.09,-0.16,5.00,-2.32,0.43,-6.98,7.91,-10.42,4
-0.99,-0.09,-0.16,3.48,-3.17,2.26,-6.95,7.68,-8.91,4
-0.99,-0.09,-0.16,5.43,-2.69,2.38,-7.04,7.80,-11.02,4
-0.99,-0.09,-0.15,5.98,-2.62,2.38,-7.74,7.82,-9.68,4
-0.98,-0.09,-0.16,4.21,-2.62,2.01,-7.40,7.86,-10.55,4
-0.99,-0.08,-0.16,2.99,-2.32,-0.73,-7.57,8.06,-10.67,4
-0.98,-0.09,-0.15,6.23,-2.99,2.75,-7.50,7.96,-10.86,4
-0.99,-0.09,-0.16,3.36,-3.91,3.11,-7.23,8.15,-9.23,4
-0.99,-0.09,-0.16,5.07,-2.08,0.55,-7.04,7.63,-10.56,4
-0.99,-0.09,-0.16,4.58,-2.81,1.10,-7.74,7.76,-9.97,4
-0.99,-0.08,-0.16,5.92,-2.56,2.26,-7.13,7.89,-9.99,4
-0.99,-0.09,-0.16,4.70,-3.05,2.93,-7.39,7.86,-9.84,4
-0.99,-0.09,-0.16,4.76,-2.99,2.38,-7.18,7.81,-9.70,4
-0.99,-0.09,-0.16,4.76,-2.38,0.61,-7.35,8.03,-9.67,4
-0.99,-0.08,-0.16,5.37,-2.32,2.50,-7.78,8.00,-10.80,4
-0.99,-0.09,-0.16,5.07,-3.11,2.87,-7.30,7.82,-9.51,4
-0.99,-0.08,-0.16,3.42,-2.50,-0.18,-7.03,8.23,-9.92,4
-0.99,-0.09,-0.15,5.43,-2.38,2.69,-7.80,7.96,-9.19,4
-0.99,-0.09,-0.17,3.78,-3.60,1.04,-7.09,7.92,-10.01,4
-0.99,-0.09,-0.15,4.58,-2.81,2.01,-7.10,7.91,-10.31,4
-0.99,-0.09,-0.16,3.91,-3.91,3.85,-7.06,7.74,-10.21,4
-0.99,-0.09,-0.16,3.48,-3.42,2.81,-7.78,7.57,-9.95,4
-0.99,-0.09,-0.15,5.49,-2.26,0.55,-7.37,7.71,-9.85,4
-0.99,-0.09,-0.16,4.76,-2.62,0.85,-7.18,8.40,-9.89,4
-0.99,-0.09,-0.16,4.21,-2.32,1.59,-7.13,7.46,-9.01,4
-0.99,-0.09,-0.16,4.39,-2.93,2.50,-7.48,7.98,-9.56,4
-0.99,-0.09,-0.16,5.49,-2.08,1.59,-6.69,7.89,-9.75,4
-0.99,-0.09,-0.16,5.13,-2.56,1.95,-7.57,7.84,-9.02,4
-0.99,-0.09,-0.16,3.78,-3.05,2.56,-7.13,7.96,-8.90,4
-0.99,-0.10,-0.16,4.39,-2.32,1.10,-7.13,8.04,-10.02,4
-0.99,-0.09,-0.16,4.76,-2.75,0.43,-7.07,7.90,-10.00,4
-0.99,-0.09,-0.16,3.54,-3.48,1.40,-7.03,7.67,-9.59,4
-0.99,-0.08,-0.16,4.21,-1.71,0.24,-7.09,7.79,-10.28,4
-0.99,-0.09,-0.15,6.16,-3.23,3.17,-7.35,7.96,-8.83,4
-0.99,-0.09,-0.16,3.42,-2.99,0.24,-6.59,7.26,-9.24,4
-0.99,-0.09,-0.16,5.86,-1.22,-0.61,-6.79,7.14,-8.64,4
-0.99,-0.08,-0.15,5.25,-3.48,2.08,-7.19,8.24,-9.73,4
-0.99,-0.09,-0.16,3.60,-2.38,2.44,-7.54,7.68,-9.89,4
-0.99,-0.09,-0.15,5.92,-2.69,2.38,-7.31,7.65,-9.23,4
-0.99,-0.09,-0.16,4.33,-3.05,2.69,-7.32,7.48,-8.83,4
-0.99,-0.09,-0.15,4.09,-2.69,0.92,-7.82,7.56,-9.58,4
-0.99,-0.09,-0.16,5.86,-2.87,2.08,-7.54,7.41,-10.63,4
-0.99,-0.09,-0.16,4.94,-2.69,1.28,-7.70,7.81,-10.19,4
-0.99,-0.08,-0.16,5.43,-2.32,0.00,-7.76,8.45,-10.35,4
-0.99,-0.09,-0.16,3.48,-2.44,1.59,-8.01,8.12,-10.22,4
-0.99,-0.09,-0.16,3.48,-1.89,-0.98,-7.36,8.01,-10.77,4
-0.99,-0.08,-0.15,6.04,-2.44,0.79,-7.06,7.69,-9.92,4
-0.99,-0.09,-0.16,6.04,-2.20,1.22,-6.92,7.42,-9.58,4
-0.99,-0.08,-0.15,4.21,0.24,-2.75,-7.86,7.40,-10.40,4
-0.99,-0.08,-0.14,8.42,4.46,-2.08,-7.50,7.24,-10.11,4
-0.99,-0.06,-0.14,3.78,1.22,0.00,-7.56,8.28,-10.63,4
-0.99,-0.05,-0.14,5.13,-1.77,4.52,-7.62,7.35,-10.61,4
-0.99,-0.09,-0.14,7.02,0.49,5.25,-7.93,8.29,-9.38,4
-1.00,-0.05,-0.12,5.80,-0.55,1.71,-7.74,7.70,-10.11,4
-0.99,-0.07,-0.14,6.29,-4.33,7.51,-7.82,7.65,-10.41,4
-1.00,-0.09,-0.14,5.43,-4.33,6.90,-7.74,7.67,-10.42,4
-0.98,-0.10,-0.15,6.90,-0.85,-1.10,-7.32,7.62,-9.53,4
-0.99,-0.09,-0.13,7.81,2.99,-1.71,-7.42,7.70,-10.28,4
-1.00,-0.07,-0.12,3.30,7.32,-6.53,-7.31,7.34,-10.29,4
-1.00,-0.06,-0.12,8.30,10.01,-8.30,-7.71,6.99,-10.89,4
-0.99,-0.04,-0.10,-1.34,15.14,-12.94,-7.86,6.58,-11.35,4
-0.97,-0.04,-0.08,-1.22,10.99,-9.83,-7.73,5.92,-11.50,4
-1.01,-0.04,-0.08,-2.20,2.26,-5.55,-7.85,5.69,-12.40,4
-1.00,-0.03,-0.07,-8.00,4.09,-7.57,-8.14,5.62,-12.50,4
-1.00,-0.01,-0.05,-5.92,-0.18,-2.32,-7.85,5.65,-12.24,4
-1.00,-0.02,-0.06,-12.39,-2.08,-3.42,-8.11,5.08,-13.18,4
-0.99,0.00,-0.06,-15.08,0.06,-2.38,-8.41,5.37,-13.33,4
-1.00,-0.02,-0.04,-15.81,0.18,9.83,-8.26,5.43,-13.67,4
-1.01,-0.01,-0.03,-21.85,-3.54,-18.01,-7.81,5.94,-13.94,4
-1.00,0.01,-0.09,1.59,-1.40,-10.44,-8.70,4.49,-14.22,4
-0.99,0.05,-0.06,3.97,-0.55,-5.31,-8.65,4.27,-14.62,4
-1.00,0.03,-0.06,5.98,-1.65,4.88,-8.73,4.32,-13.92,4
-1.00,0.03,-0.05,8.36,-2.69,12.57,-8.86,4.41,-14.86,4
-1.00,0.01,-0.05,16.42,-0.24,11.41,-8.48,4.19,-14.53,4
-0.99,-0.00,-0.06,14.83,-0.92,8.73,-8.59,4.81,-14.28,4
-1.00,-0.01,-0.05,11.05,0.18,10.25,-8.30,5.05,-13.04,4
-1.01,-0.03,-0.04,5.07,-0.61,8.91,-8.45,4.93,-14.44,4
-1.00,-0.02,-0.05,7.51,-2.20,8.18,-8.47,5.66,-13.84,4
-1.00,-0.03,-0.04,0.00,1.16,8.79,-8.67,5.76,-13.73,4
-1.00,-0.03,-0.04,3.05,-6.29,1.46,-7.87,6.01,-13.51,4
-1.02,-0.04,-0.05,4.58,-3.30,-8.00,-8.51,6.15,-13.71,4
-1.00,-0.01,-0.03,8.97,-2.20,-5.74,-8.14,5.83,-14.59,4
-1.00,-0.01,-0.05,-6.90,-2.69,-4.88,-8.39,5.88,-13.93,4
-0.99,-0.00,-0.04,-1.16,-2.14,4.21,-8.87,5.76,-12.93,4
-1.00,-0.02,-0.04,-0.43,-3.60,0.61,-8.29,5.35,-15.16,4
-1.01,0.00,-0.04,-9.40,-3.48,-8.91,-8.28,5.07,-13.83,4
-0.98,0.00,-0.04,-18.43,-1.71,-2.56,-9.07,5.18,-14.77,4
-1.00,0.01,-0.03,-33.02,-1.04,-1.04,-8.79,4.87,-15.49,4
-1.00,0.02,-0.05,-20.87,-0.85,0.24,-8.61,5.36,-15.49,4
-1.00,0.02,-0.04,-17.33,1.10,0.43,-8.92,4.97,-15.75,4
-0.97,0.02,-0.03,-23.01,5.55,4.82,-9.11,4.94,-15.91,4
-0.98,0.01,-0.03,-25.45,-1.22,-4.82,-9.39,5.31,-16.96,4
-1.01,0.01,-0.03,-40.59,-2.01,-4.15,-9.57,4.86,-17.24,4
-1.00,0.02,-0.03,-59.14,-3.85,-7.81,-9.38,4.02,-17.66,4
-1.01,0.04,-0.04,-54.63,-6.47,-5.68,-9.48,3.71,-17.63,4
-0.99,0.05,-0.05,-47.24,-8.85,-5.43,-9.88,3.78,-18.35,4
-1.00,0.04,-0.05,-44.31,-8.06,4.03,-9.84,3.25,-19.27,4
-1.00,0.04,-0.08,-58.17,-4.64,-0.18,-10.02,2.86,-20.19,4
-0.99,0.04,-0.06,-58.72,-7.93,-2.20,-9.90,2.01,-21.04,4
-1.00,0.04,-0.10,-99.67,-3.42,-0.73,-10.19,1.40,-20.78,4
-0.98,0.00,-0.08,-97.53,-15.56,7.08,-10.44,1.04,-21.11,4
-1.01,0.02,-0.11,-36.93,-2.50,4.70,-10.39,-0.50,-22.05,4
-0.99,0.01,-0.09,-33.39,-4.76,3.97,-10.21,0.50,-22.14,4
-1.00,0.01,-0.11,-28.63,-0.18,7.14,-10.13,-0.12,-22.46,4
-1.00,-0.01,-0.10,-30.03,0.00,8.06,-9.88,-0.20,-22.13,4
-1.00,-0.02,-0.09,-29.42,-5.37,9.89,-10.29,-0.28,-23.69,4
-1.00,-0.01,-0.11,-18.25,-2.87,14.77,-10.22,-0.68,-22.45,4
-1.02,-0.02,-0.06,-14.59,-0.37,-3.11,-10.00,-0.60,-23.27,4
-1.02,-0.05,-0.15,16.54,5.13,-6.16,-10.67,-0.15,-22.79,4
-1.00,-0.01,-0.13,12.63,4.52,-2.75,-10.34,-0.96,-23.55,4
-1.00,-0.05,-0.10,9.95,10.99,1.22,-10.36,-0.48,-23.46,4
-0.98,-0.01,-0.07,-1.34,13.12,8.24,-9.64,-0.61,-23.77,4
-1.01,-0.04,-0.02,2.75,12.39,5.19,-9.85,-0.18,-24.58,4
-0.98,-0.00,-0.04,-9.40,3.91,1.89,-9.02,-0.83,-24.87,4
-1.00,-0.03,-0.04,-14.59,-8.61,-1.95,-9.70,-1.23,-25.21,4
-0.97,-0.03,0.00,-30.94,-1.59,5.37,-9.58,-1.16,-25.49,4
-1.01,-0.03,-0.08,-50.60,-7.51,4.70,-9.34,-1.61,-25.48,4
-1.00,-0.04,-0.05,-45.47,-0.92,2.99,-9.57,-2.39,-24.96,4
-1.00,-0.04,-0.07,-30.64,-8.97,2.56,-9.24,-2.71,-25.31,4
-1.01,-0.05,-0.08,-49.56,-4.70,1.10,-9.61,-2.81,-25.01,4
-1.03,-0.03,-0.12,-40.71,-8.67,3.72,-9.73,-3.78,-24.56,4
-0.99,-0.04,-0.07,-48.89,-3.23,1.10,-9.29,-5.03,-24.23,4
-1.00,-0.05,-0.12,-63.78,-11.05,4.33,-9.40,-5.30,-24.02,4
-1.01,-0.07,-0.03,-51.21,-3.42,-1.89,-9.88,-6.81,-25.63,4
-0.99,-0.02,-0.08,-86.24,-13.79,5.43,-10.41,-7.26,-25.52,4
-1.00,-0.07,-0.06,-42.97,0.55,2.20,-9.83,-7.85,-25.28,4
-0.97,-0.04,-0.09,-46.26,-6.53,5.13,-9.45,-8.03,-24.52,4
-1.02,-0.08,-0.12,-26.12,-1.59,2.56,-9.95,-8.61,-25.17,4
-0.98,-0.08,-0.05,-35.71,-3.54,1.89,-9.51,-9.40,-23.91,4
-1.00,-0.07,-0.16,-47.18,-3.48,2.69,-9.62,-9.77,-23.73,4
-1.00,-0.11,-0.03,-45.35,-3.60,-2.32,-9.62,-11.11,-24.27,4
-0.98,-0.06,-0.09,-34.85,0.79,-0.55,-9.92,-11.27,-23.89,4
-1.01,-0.08,-0.03,-41.56,-3.48,-3.97,-9.66,-11.89,-23.84,4
-0.98,-0.05,-0.16,-14.95,0.06,2.99,-9.42,-12.00,-22.47,4
-0.99,-0.07,-0.03,-59.88,-12.21,-3.66,-10.03,-12.28,-23.00,4
-1.00,-0.09,-0.07,-25.63,-3.23,-2.93,-9.70,-13.11,-23.14,4
-1.00,-0.08,-0.12,-24.84,-5.07,-2.01,-9.69,-13.67,-22.45,4
-1.00,-0.03,-0.09,-23.19,-4.33,1.28,-9.57,-13.23,-22.57,4
-1.00,-0.09,-0.05,-59.51,-12.63,-7.26,-10.47,-14.18,-21.86,4
-1.00,-0.04,-0.11,-57.80,-5.31,-0.12,-9.80,-15.14,-20.07,4
-1.04,-0.08,-0.07,-41.87,-6.04,-3.05,-9.35,-15.82,-19.30,4
-1.00,-0.03,-0.10,-47.55,-5.55,-2.50,-9.44,-16.13,-19.38,4
-1.02,-0.08,-0.09,-32.96,-3.36,-0.24,-9.52,-17.00,-19.17,4
-0.98,-0.03,-0.10,-68.05,-10.25,0.06,-10.17,-16.47,-18.44,4
-1.00,-0.07,-0.12,-50.60,3.17,0.37,-10.06,-16.89,-17.60,4
-0.99,-0.04,-0.03,-79.65,-10.31,4.94,-9.33,-17.19,-15.87,4
-1.00,-0.04,-0.14,-87.10,-5.25,2.26,-9.79,-17.53,-16.15,4
-0.96,-0.10,-0.04,-46.26,-1.10,-0.55,-9.53,-17.66,-15.04,4
-1.03,-0.09,-0.08,-65.61,-9.58,0.12,-9.63,-18.09,-14.12,4
-0.98,-0.13,0.01,-41.56,0.55,0.43,-9.69,-17.72,-12.35,4
-1.06,-0.12,-0.04,-25.76,6.16,-2.08,-9.72,-17.91,-12.55,4
-0.97,0.00,-0.17,-61.10,14.77,15.75,-10.02,-17.92,-12.99,4
-0.98,-0.04,0.03,-55.91,5.00,-5.25,-9.41,-17.72,-12.43,4
-0.99,-0.12,-0.05,-31.49,1.22,-10.62,-9.30,-18.55,-12.27,4
-0.99,-0.08,-0.03,-35.28,1.34,5.37,-9.77,-18.03,-12.45,4
-0.99,-0.01,0.00,-55.48,5.92,7.20,-10.16,-17.13,-11.28,4
-1.01,-0.18,0.04,-62.81,6.41,4.88,-9.86,-17.70,-10.80,4
-1.00,-0.09,0.03,-47.36,33.33,34.97,-10.23,-17.14,-11.54,4
-0.97,-0.04,0.00,-34.00,7.69,15.44,-10.22,-15.98,-11.06,4
-1.02,-0.12,0.03,-21.85,-3.85,-0.92,-10.16,-16.04,-11.60,4
-1.00,-0.10,0.05,-3.42,-0.73,6.65,-9.92,-15.63,-10.88,4
-1.00,-0.13,0.06,-23.68,-5.74,-0.49,-9.86,-15.76,-11.05,4
-1.01,-0.09,0.08,3.54,-3.36,-0.55,-10.49,-15.44,-10.34,4
-0.97,-0.10,0.04,10.74,-6.53,2.75,-10.33,-16.26,-10.60,4
-0.99,-0.11,0.03,9.64,-3.17,2.81,-10.49,-16.08,-10.25,4
-0.99,-0.12,0.07,12.82,-6.65,7.57,-10.08,-15.77,-10.64,4
-1.00,-0.13,0.05,9.64,-4.52,5.92,-10.44,-15.52,-10.31,4
-1.01,-0.14,0.06,16.72,-4.21,-4.64,-9.74,-16.08,-10.00,4
-0.97,-0.16,0.04,-1.10,-0.79,-0.73,-10.33,-15.80,-10.94,4
-0.99,-0.10,0.06,-8.79,-3.05,-0.55,-10.74,-14.93,-11.01,4
-0.99,-0.12,0.03,18.19,-11.72,-25.63,-10.64,-15.61,-11.16,4
-1.06,-0.05,0.05,-27.28,3.05,-10.80,-10.66,-16.14,-10.27,4
-0.99,-0.08,0.05,17.21,1.28,-12.45,-11.18,-16.77,-9.61,4
-1.01,-0.03,0.10,19.65,2.69,-8.18,-9.99,-16.83,-10.27,4
-1.00,-0.02,0.04,-6.71,-7.81,49.38,-10.88,-15.71,-9.53,4
-0.98,-0.06,0.01,13.37,-23.80,2.81,-11.11,-15.12,-10.24,4
-0.98,-0.10,0.03,33.33,-6.84,-5.62,-11.16,-16.02,-9.99,4
-1.00,-0.08,0.03,5.13,-5.80,7.02,-10.86,-16.41,-10.40,4
-0.98,-0.08,0.01,0.06,-2.44,7.39,-10.83,-15.42,-9.35,4
-0.99,-0.10,0.01,-0.49,-1.59,0.24,-11.61,-14.94,-9.29,4
-1.01,-0.09,0.02,-8.85,-0.73,-2.08,-11.40,-15.01,-9.55,4
-1.00,-0.10,0.02,3.66,-1.59,0.85,-11.39,-15.19,-9.62,4
-0.99,-0.08,0.03,-10.07,-3.11,2.32,-11.66,-15.41,-8.63,4
-1.01,-0.08,0.03,-1.59,-0.85,-6.41,-11.33,-14.87,-10.31,4
-0.99,-0.07,0.02,-0.55,-2.75,-3.42,-11.22,-15.75,-9.06,4
-0.99,-0.07,0.02,-1.46,-1.59,-1.10,-11.69,-15.25,-9.97,4
-1.00,-0.06,0.03,2.93,-2.50,-1.83,-11.94,-15.69,-10.00,4
-1.00,-0.06,0.03,3.72,-1.46,-1.83,-11.57,-15.77,-9.16,4
-0.99,-0.06,0.03,-4.52,-1.16,4.46,-11.17,-15.10,-9.11,4
-0.99,-0.08,0.03,3.85,-1.59,0.31,-11.78,-14.27,-9.55,4
-1.00,-0.08,0.03,-12.76,-1.89,5.07,-11.52,-14.78,-9.14,4
-1.00,-0.07,0.03,-0.43,-2.26,2.14,-11.51,-15.49,-9.97,4
-1.00,-0.08,0.03,8.12,-2.62,0.49,-11.25,-15.09,-9.80,4
-1.00,-0.08,0.04,6.53,-2.69,0.06,-11.57,-15.65,-10.71,4
-0.99,-0.06,0.02,5.80,-3.11,-0.61,-11.43,-15.37,-9.42,4
-0.99,-0.08,0.04,7.75,-0.24,-4.76,-11.02,-15.26,-9.28,4
-0.99,-0.06,0.03,2.62,-3.23,0.73,-10.85,-15.45,-9.61,4
-1.00,-0.06,0.04,8.36,-2.38,-2.69,-10.83,-15.59,-9.70,4
-1.01,-0.05,0.03,-2.38,-3.85,0.31,-10.56,-15.97,-9.45,4
-1.01,-0.05,0.04,3.72,-2.26,0.73,-10.79,-15.43,-10.02,4
-0.98,-0.07,0.03,2.62,-5.49,0.85,-10.85,-15.65,-9.55,4
-1.00,-0.03,0.03,5.49,-5.86,-9.46,-11.10,-16.03,-8.84,4
-1.00,-0.04,0.02,2.87,-2.87,-1.65,-10.86,-16.36,-9.00,4
-1.01,-0.04,0.04,5.74,-0.55,1.28,-11.28,-16.24,-9.57,4
-0.99,-0.04,0.03,4.64,-2.81,1.83,-11.00,-16.48,-9.61,4
-1.00,-0.04,0.03,3.48,-1.77,6.65,-10.90,-15.60,-9.94,4
-0.99,-0.05,0.03,-4.58,-3.48,7.87,-10.90,-15.95,-11.15,4
-1.01,-0.04,0.03,-7.14,-2.50,4.46,-11.34,-15.12,-9.73,4
-1.01,-0.06,0.03,-21.30,-0.24,10.93,-11.51,-15.12,-9.20,4
-1.01,-0.04,0.05,-28.75,-1.77,9.34,-11.69,-14.29,-9.11,4
-0.97,-0.08,0.03,-20.57,-3.54,6.04,-11.25,-13.20,-9.08,4
-1.01,-0.08,0.04,-11.35,-2.81,-0.98,-11.85,-13.48,-8.36,4
-0.98,-0.05,0.03,-20.20,-3.05,2.50,-11.91,-13.27,-8.54,4
-0.98,-0.12,0.04,-11.72,-0.79,3.72,-11.21,-13.06,-8.22,4
-1.00,-0.03,0.05,-21.85,-5.68,15.56,-12.28,-13.17,-8.20,4
-1.00,-0.11,0.03,-31.62,7.93,21.36,-11.82,-12.92,-7.64,4
-1.00,-0.08,0.05,-35.46,11.96,18.43,-11.46,-11.84,-8.72,4
-1.00,-0.11,0.08,-43.33,27.59,16.66,-11.58,-11.82,-8.54,4
-0.95,-0.13,0.12,-36.25,20.69,4.58,-11.63,-11.56,-8.69,4
-1.00,-0.13,0.14,-31.49,8.67,-2.32,-11.41,-12.18,-9.08,4
-0.96,-0.11,0.15,-34.85,-3.11,6.53,-12.01,-11.54,-8.78,4
-0.98,-0.10,0.15,-34.67,-7.39,6.90,-11.45,-11.62,-8.08,4
-0.96,-0.11,0.11,-15.32,-11.29,2.08,-11.08,-11.62,-8.00,4
-1.00,-0.07,0.12,-4.27,-7.57,4.76,-10.91,-11.76,-6.80,4
-0.95,-0.09,0.10,7.75,-7.93,-3.72,-10.96,-10.89,-6.32,4
-1.04,-0.03,0.15,-8.61,-7.93,12.57,-10.86,-11.21,-6.98,4
-0.92,-0.17,0.18,-66.35,-20.08,7.14,-11.07,-10.74,-5.96,4
-1.07,-0.06,0.13,-46.08,-11.47,6.35,-10.52,-9.90,-6.43,4
-0.96,-0.10,0.08,-52.12,-9.52,-0.92,-10.53,-9.41,-5.36,4
-1.00,-0.04,0.10,-56.46,-16.91,10.68,-10.60,-8.92,-5.07,4
-0.98,-0.07,0.05,-22.46,-5.86,6.71,-10.11,-8.73,-4.24,4
-0.99,-0.05,0.09,-40.16,-12.33,5.19,-10.08,-7.74,-4.36,4
-1.01,-0.25,0.09,-42.60,-25.02,-0.92,-10.10,-8.13,-4.48,4
-0.99,-0.02,0.07,-34.42,1.10,12.02,-10.38,-7.50,-4.30,4
-0.98,-0.06,0.08,-34.97,-0.73,-2.87,-10.86,-6.65,-3.14,4
-1.00,-0.07,0.09,-48.22,1.16,-1.95,-10.13,-6.03,-3.89,4
-0.98,-0.05,0.09,-54.38,3.48,10.19,-11.10,-4.98,-3.94,4
-0.97,-0.06,0.11,-34.30,-1.77,6.96,-11.82,-4.15,-5.03,4
-1.00,-0.07,0.11,-30.52,-2.99,5.19,-11.72,-3.02,-4.25,4
-1.01,-0.06,0.09,-28.75,-10.50,5.55,-11.66,-3.11,-4.33,4
-0.97,-0.06,0.08,-29.05,-7.69,0.61,-11.18,-2.69,-3.08,4
-1.02,-0.04,0.09,-44.01,-4.76,-0.73,-11.49,-1.73,-3.06,4
-1.01,-0.05,0.07,-54.93,-5.98,-6.10,-12.26,-1.12,-2.95,4
-1.00,-0.04,0.10,-47.79,-1.40,-6.35,-12.19,-0.56,-3.89,4
-0.98,-0.01,0.08,-52.55,4.76,-5.31,-12.05,-0.84,-5.11,4
-1.00,0.01,0.10,-36.62,3.66,-5.13,-12.65,0.11,-4.31,4
-0.99,0.01,0.10,-32.71,11.78,-7.45,-12.76,0.06,-4.77,4
-1.01,0.04,0.14,-47.00,1.28,0.00,-13.43,0.45,-5.25,4
-1.00,0.04,0.11,-21.06,-3.66,3.30,-13.06,1.16,-5.43,4
-0.98,0.04,0.12,-13.00,-7.63,5.31,-13.21,1.48,-5.60,4
-1.00,0.02,0.10,5.37,-3.36,6.65,-13.54,1.50,-5.92,4
-1.00,0.02,0.11,4.94,-2.20,1.16,-12.85,1.53,-6.08,4
-1.00,0.02,0.11,2.81,3.36,-3.54,-12.87,1.35,-5.83,4
-1.00,0.04,0.11,0.92,1.89,-3.42,-13.16,1.46,-6.15,4
-0.97,0.03,0.11,7.57,-5.62,2.69,-13.01,1.68,-5.15,4
-0.99,0.03,0.11,1.28,-6.71,3.60,-12.81,2.05,-5.79,4
-1.00,0.03,0.10,4.88,-5.00,2.01,-12.38,1.46,-6.71,4
-1.00,0.03,0.10,6.10,-4.15,2.08,-13.53,1.67,-5.75,4
-0.99,0.03,0.11,3.42,-0.49,-1.10,-12.98,1.56,-5.73,4
-0.99,0.03,0.10,4.94,-1.10,-0.55,-12.92,1.14,-5.97,4
-0.99,0.04,0.11,7.93,-3.23,2.50,-13.65,0.87,-6.19,4
-0.99,0.03,0.11,7.20,-4.52,3.36,-13.22,1.14,-6.35,4
-1.00,0.03,0.11,8.00,-4.15,1.65,-13.28,1.21,-5.44,4
-0.98,0.02,0.10,8.67,-4.21,1.28,-12.40,1.33,-5.90,4
-0.99,0.03,0.10,6.53,-1.04,-0.98,-13.20,1.54,-5.76,4
-0.98,0.03,0.10,15.01,-1.59,-0.61,-13.04,0.67,-5.79,4
-1.00,0.03,0.11,8.42,1.71,-3.48,-12.98,1.39,-7.29,4
-0.99,0.03,0.12,11.72,-0.43,-0.98,-13.22,0.48,-6.54,4
-0.99,0.04,0.12,6.35,-1.22,-0.85,-12.70,0.82,-6.31,4
-0.99,0.04,0.12,7.02,-4.52,1.22,-13.23,0.46,-6.14,4
-1.00,0.03,0.11,6.10,-4.09,1.16,-12.68,0.12,-5.92,4
-0.99,0.03,0.12,8.48,-3.54,3.11,-12.34,0.68,-5.86,4
-0.99,0.03,0.12,5.07,-2.87,1.46,-12.65,1.34,-5.44,4
-0.99,0.03,0.12,15.63,-4.82,2.50,-12.24,0.61,-5.60,4
-0.99,0.03,0.11,15.75,-8.42,3.66,-12.35,0.20,-5.87,4
-1.01,0.02,0.10,19.65,-14.53,10.44,-12.67,1.01,-5.13,4
-0.97,0.01,0.07,28.50,-12.45,5.00,-12.27,0.93,-4.75,4
-1.00,0.00,0.10,2.14,-5.86,3.97,-12.37,0.78,-4.63,4
-0.97,0.00,0.06,41.08,-14.89,7.32,-12.63,0.82,-3.61,4
-1.03,-0.01,0.05,9.83,-10.31,-0.73,-12.96,1.22,-4.03,4
-0.94,0.06,0.07,-17.52,-15.14,29.24,-12.56,1.92,-3.48,4
-0.93,-0.08,0.05,40.71,-41.69,36.19,-12.41,3.19,-3.04,4
-1.00,-0.11,-0.03,22.28,-57.50,1.71,-11.66,2.75,-1.83,4
-1.00,-0.10,-0.10,24.29,-33.63,16.30,-10.49,3.31,-1.26,4
-0.98,-0.13,-0.05,-48.46,33.94,20.94,-11.30,5.20,-1.04,4
-1.00,-0.14,-0.01,9.89,29.66,5.07,-11.35,5.49,-1.62,4
-0.97,-0.15,0.03,4.88,-3.42,7.39,-11.93,5.66,-2.86,4
-0.99,-0.14,-0.01,10.99,-3.23,3.05,-11.38,5.29,-1.62,4
-0.98,-0.15,0.02,0.79,0.37,5.74,-11.76,5.25,-3.45,4
-1.00,-0.16,0.01,2.44,-5.43,-0.31,-11.52,5.36,-2.65,4
-0.98,-0.16,0.00,0.67,-2.93,3.48,-11.94,6.13,-2.66,4
-0.90,-0.13,0.18,3.23,-7.93,-0.92,-11.98,5.32,-2.26,4
-1.02,-0.15,-0.06,15.81,-9.58,-6.90,-11.46,5.35,-2.31,4
-0.98,-0.12,-0.01,12.88,12.82,-18.62,-11.58,4.76,-1.06,4
-1.01,-0.11,-0.01,18.55,10.25,-19.41,-12.05,4.11,-2.69,4
-0.99,-0.08,-0.01,22.95,12.88,-18.13,-12.46,2.95,-2.89,4
-1.00,-0.05,0.02,21.97,6.65,-11.47,-12.15,2.25,-3.00,4
-0.98,-0.05,0.02,26.31,-0.55,-5.13,-12.73,2.11,-2.95,4
-0.99,-0.06,0.03,39.43,-1.22,-6.23,-11.95,1.60,-2.34,4
-1.01,-0.05,0.03,43.52,6.47,-5.92,-11.90,0.40,-1.84,4
-1.00,-0.04,0.05,31.80,10.19,-6.23,-12.33,-0.73,-2.76,4
-1.01,-0.05,0.06,55.11,8.06,-9.22,-12.33,-1.82,-3.06,4
-0.98,-0.02,0.05,58.11,8.73,-3.66,-12.19,-2.67,-2.77,4
-1.00,-0.03,0.07,75.26,-1.04,-4.09,-11.49,-3.28,-3.88,4
-1.00,-0.05,0.10,63.11,4.58,-9.64,-11.69,-4.03,-2.81,4
-1.00,-0.05,0.10,31.98,5.00,0.18,-12.02,-5.31,-3.58,4
-0.98,-0.02,0.08,42.36,6.04,2.99,-11.80,-5.13,-3.85,4
-0.99,-0.02,0.10,24.96,-3.42,4.58,-12.06,-5.81,-3.85,4
-0.99,-0.01,0.07,27.47,-5.37,2.26,-11.90,-5.91,-3.44,4
-1.00,-0.06,0.09,48.03,-5.25,-1.10,-11.98,-7.19,-3.69,4
-0.99,-0.03,0.07,63.66,-13.85,-7.26,-11.39,-7.45,-4.30,4
-0.99,-0.04,0.07,96.25,-13.12,-19.35,-10.99,-8.44,-3.58,4
-1.00,-0.03,0.06,86.24,-9.95,-1.83,-10.67,-10.39,-3.03,4
-1.01,-0.01,0.05,48.52,-0.61,0.98,-10.27,-11.56,-3.88,4
-0.98,0.02,0.06,51.51,-4.03,-6.47,-10.33,-11.24,-5.30,4
-1.03,-0.05,0.06,17.88,-1.46,2.44,-10.50,-11.95,-5.46,4
-0.98,0.01,0.06,61.58,-1.16,-15.99,-10.25,-12.57,-4.90,4
-1.01,-0.02,0.07,64.39,-6.96,-8.61,-10.06,-13.59,-5.52,4
-0.99,-0.01,0.06,27.65,-2.20,-4.39,-10.07,-14.01,-5.37,4
-1.00,0.02,0.06,15.87,-6.84,-2.69,-9.66,-14.31,-5.24,4
-0.99,0.00,0.07,29.85,-4.27,-0.79,-10.18,-14.86,-6.62,4
-1.00,0.01,0.04,87.59,-12.51,0.37,-9.59,-15.22,-5.46,4
-1.00,-0.12,0.11,114.93,-25.57,29.72,-9.50,-15.67,-6.02,4
-0.98,0.08,0.17,87.28,24.96,29.97,-9.79,-15.39,-7.81,4
-1.00,-0.01,0.10,20.94,-9.09,2.81,-9.97,-15.52,-7.96,4
-1.01,-0.10,0.02,12.27,-3.30,-3.66,-9.18,-15.58,-8.63,4
-1.00,-0.05,0.03,24.48,0.61,6.71,-10.02,-15.26,-7.35,4
-1.00,-0.03,-0.02,15.08,-5.13,-2.01,-9.33,-15.69,-7.93,4
-1.02,-0.11,0.09,18.80,-3.54,-0.12,-9.53,-15.41,-8.20,4
-0.99,-0.03,0.00,21.48,-2.81,7.20,-9.81,-16.19,-8.91,4
-1.02,-0.09,0.10,12.21,-5.19,-3.42,-10.03,-16.28,-8.63,4
-0.97,-0.06,-0.01,20.75,2.99,9.28,-9.99,-16.19,-8.58,4
-1.03,-0.08,0.07,11.72,-2.14,-0.43,-9.30,-15.95,-9.78,4
-0.99,-0.09,0.01,25.70,-14.34,5.74,-9.20,-16.27,-9.79,4
-1.07,-0.01,0.04,19.29,-1.53,-0.73,-9.73,-16.66,-9.53,4
-1.01,-0.07,0.03,42.85,1.59,-0.43,-9.68,-16.39,-10.22,4
-0.97,-0.09,0.01,64.51,4.03,-0.18,-9.74,-16.96,-10.96,4
-1.01,-0.06,0.08,63.35,1.46,-0.06,-9.29,-17.27,-11.57,4
-1.02,-0.11,0.06,65.55,11.96,6.16,-10.01,-17.42,-11.99,4
-1.02,-0.10,0.09,51.76,5.25,-2.08,-9.73,-16.71,-13.01,4
-1.03,-0.15,0.07,52.80,4.15,5.07,-9.90,-16.63,-13.48,4
-0.95,-0.15,0.02,58.96,0.92,-4.09,-9.81,-16.76,-13.87,4
-0.94,-0.20,0.02,38.51,8.97,-7.63,-9.44,-16.58,-15.52,4
-0.93,0.04,0.13,35.03,-6.96,-1.89,-9.88,-16.47,-15.58,4
-1.05,-0.28,0.12,43.52,-7.02,3.17,-9.70,-17.77,-14.84,4
-1.03,0.00,0.09,53.59,1.28,15.14,-9.99,-16.58,-16.06,4
-0.98,-0.24,0.21,23.44,8.24,-23.74,-9.73,-16.38,-17.68,4
-0.98,-0.15,0.06,41.26,7.93,-8.18,-9.44,-16.83,-17.71,4
-0.98,-0.11,-0.01,75.56,7.02,5.37,-9.27,-17.03,-18.64,4
-0.99,-0.07,0.13,92.10,8.00,-17.40,-9.24,-16.56,-19.80,4
-0.95,-0.16,0.14,53.22,1.89,-15.01,-9.01,-17.11,-19.91,4
-0.96,-0.05,0.18,110.05,-2.20,5.98,-9.08,-16.10,-20.54,4
-0.90,-0.08,-0.03,82.09,-3.23,5.98,-9.38,-15.30,-21.81,4
-1.03,-0.08,0.19,107.67,13.67,-13.18,-8.95,-14.94,-22.62,4
-0.95,-0.24,-0.06,106.87,14.71,-11.96,-8.58,-13.64,-23.79,4
-1.01,-0.07,0.08,23.44,-35.64,12.27,-9.00,-13.57,-23.80,4
-1.02,-0.08,0.02,26.25,-6.96,-0.61,-9.30,-12.96,-23.83,4
-1.03,-0.18,0.08,16.24,-13.43,1.46,-9.45,-12.61,-22.91,4
-1.03,-0.18,-0.05,22.64,-7.51,2.99,-9.68,-13.26,-23.39,4
-1.02,-0.09,0.02,41.32,-22.64,-0.79,-9.74,-12.49,-22.51,4
-1.01,-0.10,-0.05,44.25,9.28,0.79,-9.90,-12.16,-22.74,4
-1.02,-0.12,0.05,78.74,-8.67,-2.99,-9.58,-11.56,-23.18,4
-1.02,-0.13,-0.06,68.54,15.99,-6.90,-9.68,-11.40,-22.79,4
-1.03,-0.12,0.02,23.56,-1.95,9.40,-9.48,-11.15,-24.45,4
-1.03,-0.09,-0.01,26.79,10.68,0.55,-8.81,-9.97,-24.71,4
-1.01,-0.10,0.01,31.07,-0.49,8.18,-9.11,-10.78,-25.55,4
-0.99,-0.15,-0.01,34.06,-5.00,-8.97,-9.19,-10.14,-25.90,4
-0.91,-0.08,0.09,2.38,1.71,10.74,-9.25,-10.03,-24.16,4
-1.00,-0.08,-0.17,-11.05,-31.25,9.40,-9.30,-10.07,-24.89,4
-1.01,-0.21,-0.02,27.71,5.55,-7.81,-9.19,-9.68,-23.78,4
-0.95,-0.15,-0.05,27.83,3.36,-0.31,-9.34,-9.50,-23.90,4
-0.91,-0.23,-0.12,26.06,-0.24,-15.26,-9.14,-9.44,-24.48,4
-0.94,-0.11,0.01,20.45,-11.29,-4.15,-9.18,-9.72,-24.60,4
-1.03,-0.13,-0.07,33.20,8.91,-1.10,-9.27,-9.22,-24.87,4
-0.96,-0.12,-0.03,32.78,-0.61,-11.54,-9.74,-9.34,-25.55,4
-0.99,-0.08,-0.04,42.60,-21.91,-6.96,-9.07,-9.62,-24.52,4
-1.02,-0.06,-0.05,37.72,14.22,4.58,-9.66,-9.23,-25.52,4
-0.99,-0.06,-0.03,39.43,-6.96,-14.89,-9.69,-8.72,-23.86,4
-1.00,-0.13,-0.07,37.17,5.19,-20.02,-9.28,-9.18,-25.51,4
-0.94,-0.11,-0.01,27.16,-8.18,-9.22,-9.74,-8.91,-25.28,4
-0.98,-0.05,-0.03,26.49,-6.59,-6.77,-9.69,-9.12,-26.33,4
-0.96,-0.04,-0.04,33.94,-7.08,-1.95,-10.03,-8.69,-25.93,4
-1.02,-0.01,-0.11,36.99,-12.02,-5.37,-9.81,-8.22,-25.79,4
-1.02,-0.04,0.01,44.92,-14.53,-9.77,-10.16,-8.36,-24.37,4
-1.03,0.00,-0.06,73.73,5.80,-11.66,-9.72,-7.36,-25.15,4
-1.00,-0.01,-0.07,39.31,-3.97,1.22,-9.24,-7.31,-25.98,4
-1.01,0.06,-0.03,16.30,2.44,31.98,-9.72,-6.70,-24.32,4
-0.99,0.01,-0.04,49.74,5.37,-13.00,-9.27,-6.30,-25.62,4
-1.01,-0.07,-0.02,45.96,8.06,1.28,-9.13,-5.65,-25.68,4
-1.05,-0.06,-0.14,52.00,-10.56,-7.08,-9.01,-5.03,-24.96,4
-1.00,-0.05,0.05,21.48,1.10,12.21,-9.09,-4.75,-24.61,4
-1.03,0.12,-0.03,21.79,10.86,24.35,-8.52,-3.93,-25.67,4
-1.00,-0.07,0.00,23.80,18.25,2.50,-9.12,-3.38,-25.32,4
-0.99,0.01,-0.04,9.83,-7.63,23.01,-8.40,-2.70,-25.68,4
-0.98,-0.10,0.03,41.93,-7.81,3.17,-8.50,-2.32,-26.67,4
-1.02,-0.08,0.00,85.08,11.23,24.90,-8.69,-0.56,-26.54,4
-1.00,0.05,-0.08,43.52,-0.49,8.18,-8.34,-0.11,-25.59,4
-1.00,-0.14,0.05,22.22,-1.46,6.84,-8.31,-0.56,-24.19,4
-1.01,-0.06,-0.06,25.70,4.27,9.52,-8.25,0.26,-25.24,4
-0.95,-0.11,-0.05,24.90,-7.26,6.29,-8.34,1.29,-25.88,4
-0.98,-0.07,0.03,30.58,-12.51,8.12,-8.22,1.07,-24.74,4
-0.99,-0.08,-0.06,43.82,6.84,-3.36,-8.00,1.59,-24.76,4
-1.01,-0.12,0.02,27.28,-7.39,4.21,-7.91,1.99,-24.68,4
-1.00,-0.03,-0.02,54.44,3.78,-5.74,-8.46,2.81,-24.28,4
-1.00,-0.11,0.01,64.51,10.99,-7.32,-8.68,3.23,-23.68,4
-1.02,-0.07,-0.06,75.44,16.05,-9.03,-8.53,3.25,-24.61,4
-1.00,-0.02,-0.01,58.53,2.20,-13.37,-8.30,4.22,-24.29,4
-1.00,-0.13,-0.01,45.41,3.36,-4.58,-8.48,3.26,-24.35,4
-1.00,0.02,0.03,25.70,-8.24,-3.30,-8.85,4.08,-23.33,4
-0.99,-0.09,-0.02,24.54,-3.48,-9.40,-8.63,3.93,-22.81,4
-0.99,-0.01,-0.00,39.61,-0.73,1.28,-8.69,3.85,-23.11,4
-1.01,-0.10,0.00,54.75,-4.03,-4.21,-8.78,4.70,-21.81,4
-1.00,0.06,-0.01,54.02,-3.05,11.29,-8.90,5.19,-21.15,4
-0.99,-0.08,0.01,53.28,-5.00,-11.47,-8.63,5.22,-21.20,4
-0.99,-0.04,-0.01,28.50,0.24,-1.53,-9.08,4.63,-21.20,4
-0.99,-0.02,0.00,28.20,-2.62,-1.59,-8.44,4.90,-20.57,4
-1.00,-0.01,0.01,19.10,-1.10,1.46,-8.73,5.30,-19.51,4
-1.01,-0.02,0.02,40.71,3.30,-4.46,-8.70,4.92,-20.07,4
-1.00,0.00,0.00,40.47,0.37,-3.54,-8.65,5.08,-20.28,4
-0.99,-0.03,0.01,27.40,0.18,-0.31,-8.81,5.60,-18.60,4
-0.98,-0.02,-0.00,19.78,-3.78,1.65,-8.75,5.98,-18.30,4
-1.01,-0.00,0.01,12.57,-5.74,6.84,-8.86,4.81,-18.68,4
-1.00,-0.00,0.02,11.35,-8.12,5.74,-8.89,5.11,-18.32,4
-1.00,-0.05,-0.01,23.01,-1.46,-0.73,-8.30,5.75,-17.65,4
-1.01,-0.02,0.02,22.03,-4.76,-0.49,-9.06,5.70,-18.10,4
-1.00,0.00,0.04,25.82,-3.23,-0.49,-8.28,5.30,-17.70,4
-0.99,-0.00,-0.02,38.02,-2.38,-1.40,-8.35,5.44,-17.40,4
-0.99,0.03,0.06,74.95,10.01,-14.95,-8.73,5.93,-17.16,4
-1.01,-0.02,-0.01,86.43,6.84,-5.13,-8.57,5.53,-15.59,4
-1.00,-0.01,0.00,64.15,8.79,-4.88,-8.69,5.76,-15.99,4
-0.99,0.03,0.09,56.58,15.26,-3.60,-8.86,5.74,-14.01,4
-1.02,0.03,0.00,79.10,2.69,-4.52,-9.35,5.59,-14.29,4
-1.00,-0.03,0.03,108.46,13.61,-10.50,-9.40,5.09,-14.18,4
-0.99,0.05,0.01,74.71,-3.36,3.05,-9.64,4.94,-11.95,4
-0.98,-0.02,0.09,38.33,-9.16,-4.15,-9.16,4.85,-11.84,4
-1.01,0.01,0.09,91.49,-2.87,-2.32,-9.24,4.98,-11.29,4
-1.00,-0.00,0.06,104.74,-2.01,-7.93,-9.22,4.37,-10.78,4
-0.99,-0.02,0.13,102.36,-7.08,-7.20,-9.46,3.66,-8.92,4
-1.00,0.05,0.03,121.28,-0.18,-4.94,-9.18,3.30,-8.47,4
-0.97,-0.01,0.12,113.10,-0.79,-15.75,-9.00,1.61,-7.62,4
-0.99,0.00,0.07,86.12,-4.27,-7.26,-9.74,0.55,-6.04,4
-0.99,0.04,0.07,170.10,7.32,-3.48,-9.70,-0.73,-5.74,4
-1.01,-0.04,0.08,111.45,-4.33,-10.62,-9.83,-2.25,-4.83,4
-0.97,-0.02,0.13,35.16,-15.99,-8.24,-9.46,-2.32,-4.13,4
-1.01,-0.03,0.03,41.99,-6.71,3.60,-9.35,-3.20,-4.93,4
-1.00,-0.02,0.13,54.81,-2.08,-0.85,-9.61,-4.00,-4.90,4
-0.99,0.03,0.02,40.41,-7.51,-3.23,-9.39,-3.75,-4.09,4
-1.00,-0.05,0.12,26.79,-13.37,-1.28,-9.09,-4.41,-3.67,4
-1.00,0.03,0.05,21.00,-4.70,-0.61,-9.85,-5.07,-3.88,4
-1.00,-0.03,0.05,7.63,-7.69,-5.98,-9.34,-4.60,-3.96,4
-1.01,-0.02,0.05,3.17,-3.78,0.12,-9.01,-5.38,-3.52,4
-1.00,0.01,0.05,6.59,-6.23,0.18,-9.08,-5.38,-2.87,4
-1.00,0.01,0.06,-2.26,-8.67,-3.91,-9.33,-5.00,-3.52,4
-1.00,0.01,0.05,7.02,-2.99,2.62,-9.53,-5.16,-3.59,4
-1.00,-0.01,0.03,1.71,-2.01,1.16,-8.75,-5.49,-3.22,4
-0.99,0.01,0.05,3.36,-3.05,1.16,-9.22,-5.29,-4.13,4
-0.99,-0.00,0.05,0.73,-2.56,-1.46,-9.58,-4.72,-2.32,4
-1.00,0.02,0.04,7.26,-0.31,1.89,-8.94,-5.49,-3.69,4
-1.00,0.01,0.06,3.05,-3.78,-1.10,-8.85,-5.43,-4.24,4
-0.99,-0.01,0.04,4.15,-0.06,0.73,-9.03,-5.41,-3.44,4
-1.00,-0.01,0.06,5.19,-1.04,0.98,-8.78,-5.36,-3.21,4
-1.00,0.01,0.06,3.30,-4.82,-0.85,-8.89,-5.36,-1.95,4
-1.01,0.02,0.07,4.88,-2.75,1.22,-8.87,-5.33,-2.60,4
-1.01,-0.00,0.05,6.90,-1.34,1.71,-9.19,-5.09,-3.43,4
-1.00,0.01,0.05,6.41,-3.42,2.26,-9.05,-5.88,-3.49,4
-1.00,0.01,0.05,3.11,-5.74,-0.37,-9.50,-6.09,-3.72,4
-0.99,0.01,0.02,2.62,-2.99,-1.40,-9.02,-5.87,-3.52,4
-1.00,0.01,0.06,3.42,-4.39,1.65,-9.08,-5.19,-3.14,4
-1.00,0.01,0.02,2.93,-1.04,-0.31,-8.70,-5.71,-3.64,4
-1.00,0.01,0.07,4.03,-5.68,-1.59,-9.47,-5.90,-4.20,4
-1.00,0.01,0.04,4.52,-2.99,1.71,-9.47,-6.16,-3.45,4
-1.00,0.02,0.04,4.03,-3.48,0.98,-9.20,-5.48,-3.61,4
-1.00,0.03,0.04,4.46,-2.81,0.49,-9.31,-5.79,-3.65,4
-1.00,-0.01,0.06,2.01,-3.42,-1.16,-8.69,-5.77,-3.41,4
-1.00,0.04,0.03,5.37,-6.29,1.40,-9.14,-5.07,-4.25,4
-1.00,0.02,0.03,5.92,-5.00,2.08,-9.06,-5.68,-3.32,4
-1.01,0.03,0.07,7.93,-5.43,3.60,-9.53,-5.44,-4.03,4
-1.00,0.00,0.03,2.08,-5.37,-3.60,-8.70,-6.04,-3.65,4
-1.02,0.02,0.09,3.17,-5.25,4.33,-9.22,-5.73,-2.73,4
-0.99,0.06,0.03,-0.73,-7.81,-4.88,-9.03,-5.55,-3.47,4
-1.01,0.02,0.01,-1.04,-1.53,1.40,-9.03,-5.62,-2.95,4
-0.99,0.03,0.05,3.85,-4.64,4.27,-9.02,-4.96,-2.93,4
-0.99,0.03,0.03,6.10,-5.92,2.38,-9.09,-5.11,-3.36,4
-0.99,0.02,0.02,-4.21,4.09,5.37,-9.36,-5.60,-3.09,4
-0.95,0.03,0.01,-7.63,-7.08,8.00,-9.14,-5.31,-2.91,4
-1.00,-0.04,0.21,-16.17,15.20,13.92,-9.23,-4.21,-3.20,4
-0.95,0.06,-0.15,-2.69,35.71,12.08,-9.70,-4.22,-3.59,4
-0.99,-0.05,0.18,-8.00,-6.10,5.92,-8.94,-4.39,-3.43,4
-1.02,-0.12,0.01,-1.40,19.90,16.30,-9.74,-3.72,-4.42,4
-1.01,0.13,0.11,-9.70,-4.76,26.31,-9.73,-2.75,-5.07,4
-1.01,-0.09,0.05,7.69,-14.71,9.34,-9.77,-3.02,-3.85,4
-0.97,-0.01,0.10,9.28,-2.87,7.57,-9.12,-2.75,-4.32,4
-0.99,-0.13,0.13,16.11,-6.23,19.47,-9.29,-2.62,-3.75,4
-0.98,0.02,0.11,18.19,1.59,8.12,-9.20,-2.83,-3.78,4
-1.04,-0.13,0.05,2.26,-4.58,-0.24,-9.23,-2.55,-4.21,4
-0.94,-0.08,0.16,13.92,-2.50,6.96,-9.64,-2.55,-4.59,4
-0.97,-0.07,-0.04,10.13,-4.39,-0.43,-9.35,-2.48,-3.99,4
-1.02,-0.09,0.19,3.91,-15.44,-2.87,-9.66,-2.19,-3.78,4
-1.00,0.11,-0.09,0.24,10.86,-9.34,-9.83,-2.51,-4.93,4
-1.02,-0.14,0.24,4.70,-2.44,9.89,-9.64,-3.37,-4.00,4
-0.95,-0.04,0.04,65.37,29.30,23.19,-10.07,-2.61,-4.02,4
-1.05,-0.15,0.10,44.43,8.48,-12.39,-9.77,-3.44,-5.57,4
-0.91,0.13,-0.01,42.18,24.90,13.67,-9.61,-2.71,-4.57,4
-1.09,-0.25,0.15,71.53,3.36,-9.46,-10.33,-4.30,-5.10,4
-0.98,0.02,0.13,69.34,6.29,-3.60,-10.35,-4.72,-4.64,4
-0.98,-0.14,0.13,130.86,5.98,-7.26,-9.83,-5.92,-4.97,4
-1.00,-0.14,0.10,41.38,-11.54,-16.11,-9.62,-6.70,-5.19,4
-0.97,-0.09,0.20,119.63,0.98,0.37,-10.18,-7.46,-5.76,4
-1.00,-0.07,0.08,133.18,9.40,-2.81,-10.38,-8.81,-6.23,4
-0.99,-0.12,0.06,138.55,6.35,-10.74,-10.39,-10.68,-6.91,4
-1.00,-0.08,0.05,141.78,8.42,-1.77,-10.28,-11.33,-6.90,4
-0.99,-0.14,0.09,99.49,-2.50,-10.38,-9.81,-12.60,-7.01,4
-0.99,-0.15,0.06,113.22,-1.95,-4.64,-9.73,-13.22,-7.17,4
-0.98,-0.06,0.07,86.79,-8.24,-4.58,-9.81,-14.01,-9.02,4
-1.01,-0.20,0.04,90.03,1.59,-11.35,-10.03,-14.59,-9.28,4
-0.96,-0.12,0.05,107.85,3.78,-2.69,-9.47,-15.00,-10.31,4
-1.01,-0.13,0.05,90.58,0.73,-5.92,-9.57,-15.54,-10.78,4
-0.99,-0.11,0.02,79.04,4.82,-4.46,-9.56,-16.16,-12.28,4
-0.99,-0.18,0.02,64.64,6.77,-4.03,-9.51,-15.95,-13.81,4
-0.98,-0.08,0.03,56.76,2.50,-3.97,-9.57,-16.42,-13.78,4
-0.99,-0.14,0.03,46.75,-1.34,-3.11,-9.68,-16.46,-14.18,4
-0.98,-0.13,0.02,24.48,-1.34,-3.85,-9.68,-16.30,-14.81,4
-1.00,-0.15,0.02,19.23,-3.36,-1.89,-9.79,-16.64,-15.14,4
-0.99,-0.11,0.04,11.54,-2.08,-2.08,-9.40,-16.66,-16.14,4
-1.00,-0.12,0.01,7.75,-3.36,-1.40,-9.06,-16.77,-15.94,4
-1.00,-0.15,0.02,3.48,-4.70,-3.17,-9.27,-17.24,-15.67,4
-0.98,-0.11,0.05,7.75,-3.11,-2.99,-9.78,-17.10,-14.21,4
-1.00,-0.11,0.03,1.28,-1.34,-1.53,-9.31,-17.30,-15.38,4
-1.00,-0.09,0.03,4.21,-6.65,-0.67,-9.72,-17.22,-15.30,4
-1.00,-0.12,0.04,5.31,-3.05,-3.60,-9.05,-17.46,-15.17,4
-0.99,-0.08,0.01,3.85,-2.56,2.75,-8.85,-17.86,-15.06,4
-0.99,-0.11,0.03,3.11,-3.48,-0.49,-9.11,-16.97,-14.61,4
-1.00,-0.09,0.04,3.30,-2.44,0.55,-8.98,-17.79,-15.75,4
-0.99,-0.08,0.03,4.15,-3.17,3.23,-9.35,-17.36,-14.75,4
-1.00,-0.09,0.03,5.00,-3.60,1.65,-9.01,-16.86,-14.42,4
-1.00,-0.09,0.02,4.33,-2.38,1.53,-9.27,-17.71,-14.54,4
-0.99,-0.10,0.04,5.00,-4.27,0.55,-8.94,-17.64,-13.98,4
-1.00,-0.10,0.03,4.15,-2.69,1.83,-9.29,-17.46,-15.15,4
-1.00,-0.09,0.04,5.07,-4.33,1.46,-8.76,-16.94,-14.89,4
-1.00,-0.10,0.03,4.82,-3.11,0.24,-9.53,-17.57,-14.98,4
-1.00,-0.10,0.02,3.42,-2.62,1.04,-9.09,-17.88,-15.55,4
-0.99,-0.06,0.03,5.68,-4.52,2.14,-9.23,-17.90,-15.17,4
-0.99,-0.09,0.03,3.17,-3.60,0.79,-9.33,-17.14,-14.43,4
-1.00,-0.10,0.02,4.94,-1.16,2.38,-9.19,-18.03,-14.95,4
-1.01,-0.09,0.02,2.93,-2.81,2.93,-9.22,-17.02,-13.77,4
-0.98,-0.07,0.01,4.64,-2.62,1.65,-9.22,-17.60,-14.45,4
-1.01,-0.11,0.02,3.48,-2.99,-1.10,-9.22,-17.25,-14.88,4
-0.99,-0.08,0.04,4.03,-3.48,3.36,-9.64,-17.80,-15.19,4
-1.00,-0.09,0.03,5.13,-3.05,2.26,-9.36,-17.38,-14.39,4
-0.99,-0.08,0.02,2.87,-1.71,1.22,-9.13,-16.96,-14.59,4
-1.00,-0.10,0.03,5.25,-3.36,1.95,-9.08,-17.30,-14.06,4
-1.01,-0.08,0.01,3.78,-2.08,3.78,-9.39,-17.93,-14.06,4
-1.01,-0.09,0.03,6.96,-4.27,1.53,-8.94,-17.43,-13.93,4
-1.00,-0.10,0.02,2.81,-1.89,2.14,-9.13,-16.71,-14.94,4
-0.99,-0.08,0.02,3.91,-3.05,2.32,-9.05,-16.76,-14.37,4
-1.00,-0.08,0.01,3.60,-3.36,0.49,-9.70,-17.32,-14.50,4
-0.99,-0.09,0.03,2.87,-1.71,0.55,-9.52,-17.50,-15.37,4
-1.01,-0.10,0.02,5.74,-3.23,1.40,-9.66,-17.05,-14.36,4
-0.99,-0.08,0.00,3.36,-2.44,1.83,-9.55,-17.60,-14.03,4
-1.00,-0.10,0.02,4.15,-2.62,0.06,-9.42,-17.54,-14.75,4
-1.00,-0.09,0.03,3.78,-3.23,1.89,-9.67,-16.97,-14.56,4
-0.99,-0.07,0.02,4.15,-2.08,2.93,-9.19,-17.48,-14.99,4
-1.00,-0.10,0.02,4.88,-1.46,2.75,-9.40,-17.55,-14.90,4
-0.99,-0.09,0.04,2.81,-1.77,0.24,-10.17,-17.09,-14.82,4
-1.00,-0.12,0.02,2.99,-0.85,-0.43,-9.27,-17.25,-14.42,4
-1.00,-0.10,0.03,4.03,-3.30,1.89,-9.41,-17.30,-14.98,4
-1.00,-0.09,0.03,2.75,-2.69,1.71,-9.59,-17.35,-15.03,4
-0.99,-0.10,0.04,4.52,-2.81,1.89,-9.42,-17.33,-14.43,4
-1.00,-0.10,0.01,1.95,-1.34,1.40,-9.42,-16.75,-14.29,4
-1.00,-0.10,0.03,3.48,-3.48,2.75,-9.40,-18.24,-13.83,4
-0.99,-0.09,0.03,1.16,-2.93,0.55,-9.64,-17.44,-15.14,4
-1.00,-0.11,0.05,6.96,-4.46,3.11,-9.28,-18.07,-14.18,4
-0.99,-0.09,0.01,0.43,-0.98,-0.85,-9.51,-17.40,-14.89,4
-1.00,-0.10,0.03,2.99,-3.72,1.53,-9.35,-17.80,-14.07,4
-1.00,-0.09,0.02,2.69,-2.08,1.34,-9.56,-17.22,-15.64,4
-0.99,-0.09,0.01,0.31,-2.32,3.78,-9.47,-17.65,-14.50,4
-1.00,-0.09,0.04,0.37,-1.46,-0.18,-9.17,-17.92,-13.59,4
-0.99,-0.09,0.04,-4.15,-3.23,2.26,-8.76,-16.99,-14.51,4
-1.00,-0.07,0.04,-7.39,1.71,0.18,-9.13,-16.83,-14.34,4
-1.00,-0.11,0.06,-5.98,-2.69,2.99,-9.31,-17.31,-14.42,4
-0.99,-0.05,0.04,-7.08,-2.14,3.66,-8.84,-17.53,-14.33,4
-0.99,-0.10,0.04,-7.14,-1.22,5.07,-9.27,-17.44,-14.51,4
-1.01,-0.09,0.06,-10.93,0.85,1.65,-9.00,-17.19,-14.29,4
-0.98,-0.09,0.05,-22.95,-0.92,3.91,-8.61,-17.37,-13.68,4
-1.01,-0.04,0.09,-36.68,3.66,-3.42,-9.56,-17.59,-13.85,4
-1.00,-0.09,0.10,-38.02,-5.07,2.08,-9.25,-17.00,-13.72,4
-1.01,-0.10,0.08,-37.90,1.46,0.55,-9.27,-17.41,-13.11,4
-0.98,-0.05,0.05,-51.27,-3.54,3.05,-8.87,-17.37,-12.28,4
-0.99,-0.08,0.04,-84.59,-2.87,-5.92,-8.89,-17.77,-12.74,4
-1.01,-0.09,0.10,-134.77,-4.82,-10.56,-8.92,-16.83,-9.28,4
-1.00,-0.05,0.06,-106.63,0.79,1.10,-8.86,-16.83,-8.54,4
-1.00,-0.06,0.12,-78.98,-3.97,-6.35,-9.03,-16.17,-8.13,4
-1.00,-0.01,0.05,-50.35,0.49,-0.55,-9.30,-15.97,-7.36,4
-1.00,0.03,0.10,-53.10,-8.00,6.10,-8.83,-15.16,-5.83,4
-1.00,0.02,0.07,-20.51,-0.18,6.10,-8.95,-15.56,-6.96,4
-1.00,0.03,0.03,-60.61,-6.35,9.28,-9.31,-14.97,-6.48,4
-0.99,-0.02,0.09,-58.29,1.34,7.45,-9.12,-13.84,-5.96,4
-0.99,0.04,0.03,-96.50,-3.36,14.83,-9.72,-12.78,-4.93,4
-0.99,0.02,0.07,-85.45,-6.59,7.51,-8.89,-12.23,-3.86,4
-1.00,0.03,0.03,-77.94,-3.97,4.64,-9.24,-11.15,-3.99,4
-1.00,-0.01,0.07,-67.08,-9.77,2.32,-9.20,-9.52,-3.06,4
-0.98,0.01,0.03,-62.74,-4.94,2.50,-9.13,-9.00,-3.12,4
-1.00,0.02,0.02,-68.18,-9.52,4.39,-8.26,-8.15,-2.91,4
-1.00,0.03,0.05,-50.78,-6.77,4.09,-8.69,-7.26,-2.54,4
-1.00,0.02,-0.02,-64.09,-6.04,3.91,-9.51,-6.36,-2.49,4
-0.99,0.03,0.01,-45.84,-9.64,5.31,-8.84,-5.86,-2.80,4
-1.01,0.03,-0.01,-44.56,-3.11,2.81,-8.83,-5.51,-2.00,4
-1.01,0.02,0.01,-83.07,-10.01,2.50,-8.54,-3.92,-0.98,4
-1.00,0.01,-0.01,-80.20,-7.87,5.62,-8.52,-3.38,-2.09,4
-0.99,0.01,-0.01,-71.78,-8.36,4.46,-8.33,-2.44,-1.55,4
-1.00,0.01,-0.02,-45.29,2.44,6.29,-8.69,-1.53,-1.45,4
-1.00,-0.02,-0.07,-37.05,2.08,6.10,-8.03,-0.54,-2.70,4
-1.00,-0.00,-0.02,-33.75,-2.01,4.82,-8.52,0.50,-3.02,4
-0.99,-0.00,0.02,-40.04,0.61,3.42,-8.76,0.96,-4.60,4
-1.03,-0.00,-0.08,-52.37,-4.21,8.97,-9.11,1.33,-3.71,4
-1.00,-0.01,-0.01,-37.17,-3.48,2.87,-8.25,2.08,-4.32,4
-0.99,-0.05,-0.04,-50.54,-5.55,6.04,-8.53,1.95,-4.39,4
-1.00,0.00,-0.01,-34.48,-5.49,3.60,-8.95,3.30,-4.41,4
-0.98,-0.07,-0.09,-38.45,-3.54,0.85,-8.34,3.23,-5.60,4
-1.02,0.01,-0.03,-97.47,-17.15,9.28,-8.12,4.11,-5.38,4
-1.01,-0.04,-0.06,-61.40,-3.97,0.79,-8.18,4.86,-6.86,4
-1.00,-0.01,-0.03,-23.07,-6.10,-5.49,-8.47,4.42,-6.51,4
-1.01,-0.01,-0.08,-41.44,-4.70,9.64,-7.74,5.32,-7.53,4
-1.00,-0.01,-0.05,-20.39,1.16,-2.01,-8.39,5.49,-6.54,4
-1.00,-0.05,-0.04,-36.38,-0.18,4.76,-8.62,5.79,-8.58,4
-1.00,-0.05,-0.08,-49.99,-3.11,1.16,-8.08,5.70,-9.18,4
-1.00,-0.04,-0.07,-59.27,-9.40,8.85,-8.62,6.12,-8.69,4
-1.01,-0.01,-0.07,-71.66,-6.59,5.68,-8.46,6.14,-10.80,4
-1.00,-0.05,-0.09,-63.54,-13.92,0.67,-8.09,7.28,-10.56,4
-0.99,-0.05,-0.05,-63.72,-7.20,-1.10,-8.52,7.20,-12.34,4
-1.01,-0.09,-0.08,-80.87,-6.84,5.74,-8.74,6.65,-12.17,4
-1.00,-0.06,-0.08,-109.80,-6.53,7.20,-8.76,7.15,-13.67,4
-0.96,-0.07,-0.03,-134.03,-5.19,2.26,-7.64,6.93,-14.98,4
-1.00,-0.10,-0.08,-64.64,-9.28,8.00,-7.74,6.82,-16.93,4
-0.98,-0.05,-0.04,-35.03,-2.44,-4.33,-8.03,7.04,-17.81,4
-1.01,-0.02,0.00,-20.14,7.51,-13.55,-8.04,6.92,-18.36,4
-1.01,-0.18,-0.07,-8.12,14.83,-20.32,-8.24,5.32,-19.41,4
-1.00,0.01,-0.04,-9.16,10.99,3.36,-7.63,5.57,-18.80,4
-1.00,-0.07,-0.02,-8.42,-1.28,-25.21,-8.36,4.69,-19.25,4
-1.00,-0.07,-0.04,-11.23,-1.65,-3.48,-8.83,4.39,-19.71,4
-0.97,-0.01,-0.05,-41.20,-6.77,-6.23,-8.51,3.96,-20.94,4
-1.02,-0.01,-0.03,-34.67,-0.18,-18.98,-9.27,4.09,-20.73,4
-1.00,0.04,-0.06,-31.13,-7.45,-12.76,-9.06,2.89,-21.13,4
-1.00,-0.00,-0.01,-6.41,-6.16,-3.30,-9.22,2.26,-21.03,4
-0.99,0.03,-0.05,-12.33,-7.39,-8.00,-9.28,2.04,-20.79,4
-0.99,0.05,-0.04,-23.74,-3.48,-19.84,-8.96,1.78,-21.74,4
-1.00,0.05,-0.04,-12.21,-4.82,-19.59,-9.28,0.90,-21.02,4
-0.98,0.11,-0.07,-19.65,-2.32,-11.78,-9.57,0.48,-21.53,4
-1.00,0.09,-0.06,-11.35,-9.46,-21.79,-10.30,-0.77,-21.51,4
-0.99,0.11,-0.05,-1.59,-9.03,-11.41,-10.31,-1.26,-21.57,4
-1.02,0.12,-0.10,-29.36,-8.97,-20.94,-10.08,-1.87,-21.12,4
-0.98,0.15,-0.09,4.88,-13.12,-18.13,-10.41,-2.66,-21.01,4
-0.97,0.12,-0.03,-9.83,-7.26,-9.16,-10.19,-2.81,-20.86,4
-1.01,0.19,-0.11,-11.90,-13.37,-17.15,-10.71,-3.60,-20.92,4
-0.94,0.14,-0.08,-2.56,-2.69,-9.64,-10.46,-4.65,-20.97,4
-1.00,0.22,-0.13,-44.98,-5.31,-13.98,-10.42,-5.02,-20.63,4
-0.99,0.20,-0.10,26.12,-7.87,-6.47,-10.63,-5.53,-20.68,4
-0.99,0.24,-0.07,6.65,-3.78,-0.98,-10.93,-5.16,-20.65,4
-0.96,0.15,-0.14,28.63,-13.49,-18.80,-10.57,-5.70,-20.74,4
-0.99,0.21,-0.17,42.54,-7.69,-5.62,-11.15,-6.09,-19.69,4
-0.94,0.29,-0.19,3.23,-0.55,-3.78,-10.73,-5.99,-19.56,4
-0.93,0.27,-0.14,19.84,0.31,5.37,-10.86,-6.12,-18.76,4
-0.98,0.24,-0.18,9.22,4.21,3.85,-10.74,-5.88,-20.17,4
-0.93,0.26,-0.12,27.83,-5.25,1.65,-10.94,-5.77,-19.45,4
-0.96,0.24,-0.08,16.48,2.93,7.39,-10.88,-5.76,-20.28,4
-0.97,0.27,-0.12,-0.06,1.46,6.10,-10.56,-5.35,-20.21,4
-0.96,0.21,-0.09,11.66,4.46,3.17,-10.51,-5.54,-19.69,4
-0.95,0.25,-0.09,10.38,8.42,4.82,-10.47,-5.31,-20.41,4
-0.94,0.24,-0.17,30.52,-11.96,-60.00,-10.63,-5.53,-21.00,4
-0.89,0.12,-0.09,-17.03,-25.63,-15.69,-11.06,-7.03,-20.69,4
-0.93,0.39,0.02,13.37,6.96,15.01,-11.13,-6.23,-19.78,4
-0.98,0.35,-0.20,-12.76,6.77,7.26,-10.80,-6.58,-20.50,4
-0.98,0.23,-0.03,38.39,-6.35,-18.68,-11.05,-7.17,-21.22,4
-1.00,0.33,-0.06,30.70,20.87,-16.11,-10.88,-7.47,-20.95,4
-0.91,0.34,-0.04,14.34,11.78,-10.01,-10.94,-7.03,-20.08,4
-0.94,0.35,-0.05,24.60,13.92,-12.63,-10.77,-7.04,-21.46,4
-0.93,0.34,-0.01,24.72,11.05,-3.30,-10.80,-7.14,-23.21,4
-0.94,0.38,0.02,42.36,20.32,-8.67,-10.47,-7.34,-23.22,4
-0.91,0.38,0.05,33.51,19.23,-8.30,-10.56,-7.30,-24.12,4
-0.90,0.38,0.09,37.41,24.96,-6.65,-10.39,-7.29,-25.39,4
-0.94,0.38,0.13,48.28,25.27,-1.46,-10.36,-7.17,-25.59,4
-0.92,0.36,0.16,28.63,17.21,8.79,-9.53,-6.03,-26.21,4
-0.94,0.36,0.20,37.29,14.40,16.30,-9.63,-5.21,-27.03,4
-0.91,0.31,0.21,29.30,10.93,23.99,-9.25,-4.88,-26.67,4
-0.91,0.32,0.24,23.99,11.72,20.45,-9.22,-4.24,-26.81,4
-0.93,0.29,0.25,24.78,14.16,23.68,-8.79,-3.42,-26.60,4
-0.93,0.25,0.27,32.10,11.23,30.46,-8.76,-2.12,-28.04,4
-0.94,0.22,0.31,27.16,6.16,35.16,-8.00,-1.42,-27.04,4
-0.93,0.18,0.31,25.63,1.10,27.71,-7.58,-0.81,-27.71,4
-0.91,0.15,0.31,33.02,-3.54,35.34,-7.70,0.95,-27.04,4
-0.96,0.09,0.31,31.37,-0.73,33.57,-7.13,1.37,-26.53,4
-0.93,0.08,0.32,37.78,-1.89,34.30,-6.62,2.69,-26.84,4
-0.97,0.01,0.31,35.10,-3.72,28.14,-6.80,4.25,-27.26,4
-0.94,-0.02,0.30,30.58,-12.51,29.36,-6.02,5.15,-24.61,4
-0.95,-0.05,0.30,22.77,-17.09,27.16,-6.36,6.12,-24.87,4
-0.96,-0.07,0.29,24.35,-18.19,20.14,-5.48,6.58,-24.95,4
-0.98,-0.09,0.28,33.14,-17.76,19.90,-5.54,7.48,-23.74,4
-0.97,-0.12,0.24,24.90,-18.98,21.61,-5.44,7.74,-23.13,4
-0.97,-0.12,0.24,19.17,-20.26,9.09,-5.97,7.92,-22.18,4
-0.97,-0.15,0.20,15.44,-24.60,3.42,-5.32,8.14,-21.73,4
-0.97,-0.14,0.20,7.87,-23.50,-2.26,-5.74,8.20,-21.56,4
-0.97,-0.15,0.15,-11.47,-24.48,-10.62,-6.45,8.12,-21.25,4
-0.97,-0.11,0.15,-28.81,-23.25,-13.37,-7.08,7.89,-20.86,4
-0.99,-0.10,0.13,-16.54,-20.26,-12.88,-6.74,7.39,-20.74,4
-0.99,-0.06,0.12,-26.31,-17.27,-16.30,-6.98,6.14,-20.41,4
-1.00,-0.06,0.11,-14.40,-10.56,-18.55,-7.86,6.05,-21.59,4
-0.99,-0.03,0.10,-15.63,-10.93,-22.58,-8.30,5.03,-21.87,4
-1.01,-0.01,0.09,-22.09,-11.84,-26.61,-7.91,4.21,-21.11,4
-0.98,0.04,0.09,-21.42,-13.55,-30.15,-8.54,3.30,-21.24,4
-1.01,0.06,0.06,-29.60,-13.43,-33.02,-8.97,2.66,-21.03,4
-0.99,0.10,0.05,-19.17,-12.63,-34.73,-9.36,1.25,-21.29,4
-0.99,0.13,0.03,-22.09,-16.54,-30.70,-10.08,-0.49,-20.40,4
-0.98,0.17,0.01,-25.63,-23.32,-27.95,-9.97,-1.38,-20.48,4
-0.99,0.19,-0.03,-39.73,-33.81,-26.49,-9.90,-2.65,-20.59,4
-0.99,0.22,-0.06,-38.02,-35.16,-16.36,-10.36,-3.20,-20.23,4
-0.96,0.23,-0.10,-26.79,-34.61,-6.29,-10.51,-4.27,-20.21,4
-0.95,0.24,-0.15,-26.43,-34.85,-4.21,-10.69,-4.33,-18.23,4
-0.95,0.22,-0.19,-28.08,-34.73,1.83,-10.95,-3.98,-17.35,4
-0.96,0.23,-0.22,-33.08,-38.33,5.92,-10.67,-4.39,-16.49,4
-0.94,0.20,-0.27,-22.22,-36.38,6.84,-10.77,-4.68,-16.53,4
-0.93,0.20,-0.31,-24.41,-31.19,18.31,-10.72,-3.97,-14.10,4
-0.94,0.17,-0.33,-16.48,-27.95,19.71,-10.60,-3.71,-14.28,4
-0.91,0.14,-0.36,-12.82,-28.26,19.47,-10.79,-3.19,-13.40,4
-0.93,0.10,-0.38,-8.48,-29.24,27.40,-10.82,-2.38,-13.46,4
-0.89,0.10,-0.42,-4.15,-28.38,30.40,-10.28,-1.34,-12.88,4
-0.91,0.06,-0.43,15.38,-25.82,43.46,-10.08,-1.07,-11.04,4
-0.89,0.04,-0.46,10.93,-18.62,44.49,-9.97,0.90,-11.27,4
-0.91,0.01,-0.46,10.68,-10.56,43.58,-10.28,2.49,-11.72,4
-0.88,-0.04,-0.46,10.50,-3.85,37.05,-9.59,3.03,-10.07,4
-0.86,-0.07,-0.46,9.52,3.78,44.74,-8.94,3.66,-10.07,4
-0.89,-0.10,-0.45,11.35,10.93,47.67,-8.09,4.76,-10.85,4
-0.88,-0.15,-0.44,25.51,14.04,48.46,-7.62,6.02,-10.11,4
-0.91,-0.16,-0.45,19.71,14.53,42.54,-7.58,7.07,-10.16,4
-0.89,-0.23,-0.43,17.94,13.55,35.28,-7.09,7.53,-11.18,4
-0.89,-0.22,-0.42,15.99,10.68,31.56,-6.41,8.37,-11.51,4
-0.87,-0.24,-0.40,11.23,7.45,34.24,-5.57,9.55,-11.54,4
-0.89,-0.26,-0.41,15.99,11.29,29.11,-5.54,10.07,-10.74,4
-0.87,-0.28,-0.39,16.78,6.23,28.50,-4.75,10.02,-11.91,4
-0.89,-0.30,-0.39,16.11,13.06,28.81,-4.94,10.30,-11.49,4
-0.88,-0.30,-0.37,11.11,10.50,15.99,-4.33,11.04,-11.10,4
-0.90,-0.33,-0.37,11.90,18.68,11.41,-3.96,10.83,-11.51,4
-0.88,-0.33,-0.33,19.10,21.06,9.28,-3.52,11.06,-12.12,4
-0.90,-0.34,-0.34,28.14,28.69,3.60,-3.66,11.39,-11.87,4
-0.88,-0.30,-0.29,16.54,27.77,3.05,-3.75,11.41,-13.09,4
-0.92,-0.31,-0.28,15.32,35.10,-4.70,-3.82,10.74,-13.20,4
-0.92,-0.31,-0.25,12.27,34.79,-5.92,-4.38,11.62,-13.29,4
-0.93,-0.30,-0.21,20.51,37.35,-6.53,-4.14,11.74,-13.65,4
-0.94,-0.29,-0.19,21.00,33.75,-7.20,-4.66,11.18,-15.10,4
-0.96,-0.27,-0.16,11.54,30.46,-18.31,-4.74,10.69,-14.87,4
-0.97,-0.25,-0.12,10.93,27.59,-28.50,-5.20,10.12,-15.88,4
-0.98,-0.21,-0.10,1.28,24.84,-35.77,-5.69,9.77,-16.36,4
-0.96,-0.15,-0.06,2.08,25.82,-51.15,-6.68,8.40,-16.88,4
-1.02,-0.12,-0.05,3.66,25.21,-44.92,-7.92,7.46,-18.38,4
-0.99,-0.06,-0.02,1.71,15.69,-45.59,-8.46,6.53,-18.51,4
-1.00,-0.03,0.00,0.00,12.94,-44.80,-9.36,5.18,-19.30,4
-1.00,0.02,0.02,-5.07,5.25,-39.18,-9.67,4.09,-18.32,4
-0.98,0.07,0.02,-8.42,0.37,-41.50,-10.05,2.88,-19.65,4
-1.00,0.09,0.02,-10.01,0.49,-36.93,-10.73,2.58,-19.96,4
-0.98,0.15,0.01,-10.74,-1.22,-40.41,-10.63,0.82,-20.57,4
-1.00,0.20,0.02,-19.23,-5.13,-28.87,-10.39,-0.37,-20.51,4
-0.97,0.20,0.01,-12.70,-7.69,-28.56,-10.99,-1.40,-21.18,4
-0.97,0.26,0.01,-15.81,-10.74,-34.00,-10.68,-2.91,-20.41,4
-0.96,0.30,-0.01,-8.85,-7.14,-25.45,-10.53,-3.67,-20.69,4
-0.94,0.31,-0.01,-2.81,-0.18,-32.53,-11.25,-4.83,-19.80,4
-0.93,0.34,-0.01,8.24,10.50,-24.41,-11.56,-5.24,-20.08,4
-0.90,0.35,0.02,13.79,19.23,-16.72,-11.29,-5.40,-21.13,4
-0.92,0.37,0.04,23.32,33.02,-2.81,-11.04,-5.42,-23.63,4
-0.92,0.37,0.10,25.33,36.01,-2.14,-10.85,-5.27,-24.28,4
-0.93,0.36,0.13,27.77,36.01,2.38,-11.08,-5.24,-23.65,4
-0.91,0.35,0.18,28.87,31.86,3.85,-10.28,-5.10,-25.74,4
-0.91,0.35,0.22,26.86,31.37,8.36,-10.19,-4.81,-25.60,4
-0.90,0.34,0.25,29.79,27.89,13.06,-9.84,-4.27,-26.98,4
-0.90,0.33,0.30,29.24,33.39,19.23,-9.19,-3.77,-27.28,4
-0.89,0.28,0.33,27.28,30.94,27.65,-8.54,-2.40,-27.87,4
-0.88,0.25,0.37,27.16,23.50,40.59,-8.28,-1.25,-28.77,4
-0.90,0.22,0.40,19.47,18.49,37.60,-7.60,-0.66,-28.72,4
-0.89,0.18,0.41,14.95,9.34,30.46,-7.08,0.09,-29.76,4
-0.89,0.14,0.42,18.07,-4.52,39.18,-6.38,1.39,-30.53,4
-0.91,0.11,0.41,9.03,-11.17,34.12,-6.60,2.59,-29.77,4
-0.92,0.07,0.40,9.28,-12.08,37.11,-6.04,2.84,-29.52,4
-0.90,0.04,0.38,21.12,-10.07,45.04,-6.20,4.54,-29.36,4
-0.92,-0.00,0.40,13.37,-10.44,41.93,-5.66,4.82,-27.98,4
-0.91,-0.03,0.38,20.81,-8.67,35.58,-5.10,6.12,-26.64,4
-0.92,-0.09,0.37,26.98,-10.31,43.95,-5.25,6.92,-26.84,4
-0.90,-0.11,0.37,15.99,-9.95,34.73,-3.78,7.37,-27.92,4
-0.93,-0.18,0.35,23.50,-13.18,28.08,-4.46,8.40,-26.16,4
-0.93,-0.20,0.33,19.53,-18.98,22.95,-3.86,9.14,-25.95,4
-0.91,-0.20,0.31,9.03,-28.69,11.90,-3.81,10.11,-25.22,4
-0.93,-0.22,0.28,9.46,-37.78,11.72,-4.19,9.89,-24.68,4
-0.94,-0.22,0.27,-3.54,-38.02,-4.94,-4.10,10.25,-24.83,4
-0.95,-0.20,0.21,-15.01,-44.43,-26.79,-4.59,9.11,-22.83,4
-0.99,-0.16,0.18,-16.91,-49.56,-31.13,-5.91,7.81,-23.44,4
-0.98,-0.11,0.12,-25.82,-49.13,-35.40,-6.63,6.99,-22.75,4
-1.00,-0.08,0.09,-18.43,-46.39,-27.71,-7.07,5.73,-21.07,4
-0.99,-0.05,0.04,-20.81,-41.69,-25.15,-7.60,5.15,-21.23,4
-1.01,-0.03,0.02,-16.66,-40.77,-16.91,-8.12,4.35,-19.49,4
-1.00,-0.02,-0.03,-15.87,-37.66,-11.17,-8.46,4.22,-19.46,4
-0.99,0.01,-0.06,-13.67,-32.35,-3.30,-8.42,3.89,-19.21,4
-1.00,-0.01,-0.09,-10.07,-33.02,-2.62,-8.83,3.56,-18.91,4
-1.00,0.00,-0.12,-9.95,-32.53,-5.74,-9.42,3.80,-18.52,4
-0.97,-0.00,-0.15,-14.95,-38.82,3.23,-8.95,2.98,-17.19,4
-1.01,0.00,-0.19,-6.59,-32.29,3.72,-9.36,3.05,-16.60,4
-0.96,-0.01,-0.21,-11.17,-32.78,7.20,-9.36,3.70,-15.59,4
-0.99,-0.02,-0.25,-5.62,-30.46,7.87,-9.00,3.03,-15.20,4
-0.94,-0.01,-0.27,6.35,-5.49,-3.72,-9.38,3.00,-14.28,4
-0.97,-0.02,-0.26,8.48,7.02,12.15,-9.28,2.95,-14.94,4
-0.98,-0.01,-0.25,6.65,15.50,1.59,-9.22,3.77,-15.21,4
-0.99,-0.03,-0.22,14.16,15.01,4.88,-9.79,3.70,-15.71,4
-0.97,-0.02,-0.20,11.84,22.64,2.56,-9.86,3.54,-15.63,4
-1.01,-0.03,-0.18,10.56,23.19,0.06,-9.52,4.25,-16.74,4
-0.97,-0.00,-0.16,15.14,30.58,-10.13,-9.62,3.22,-17.63,4
-1.03,-0.01,-0.11,9.89,28.26,1.71,-9.48,3.91,-17.49,4
-0.98,0.01,-0.07,15.20,37.11,-11.60,-9.12,3.10,-19.69,4
-1.01,0.02,-0.03,18.01,37.66,-2.69,-9.22,3.74,-20.46,4
-1.00,0.02,0.01,20.51,44.37,-10.86,-9.23,3.77,-20.25,4
-0.98,0.04,0.05,14.04,37.05,-2.08,-8.83,3.11,-21.75,4
-0.99,0.05,0.09,29.24,37.72,1.65,-8.58,3.87,-22.06,4
-0.99,0.02,0.14,19.17,40.77,-1.40,-8.39,3.42,-23.00,4
-0.96,0.03,0.18,19.96,35.89,0.85,-7.90,3.15,-22.85,4
-0.98,0.03,0.21,15.75,33.75,-2.93,-8.13,3.99,-24.63,4
-0.97,0.03,0.24,13.92,32.96,-3.05,-7.91,4.27,-25.82,4
-0.96,0.03,0.28,8.42,24.11,-3.91,-6.75,3.74,-26.44,4
-0.95,0.04,0.30,11.17,23.62,0.49,-6.96,4.09,-26.49,4
-0.93,0.04,0.32,10.50,19.47,1.34,-6.80,4.24,-27.66,4
-0.94,0.04,0.35,12.21,19.29,6.90,-6.71,4.38,-27.76,4
-0.93,0.02,0.36,11.47,23.38,5.68,-5.98,4.42,-28.03,4
-0.91,0.01,0.39,14.10,22.77,11.47,-6.04,4.61,-28.15,4
-0.89,0.02,0.41,11.78,23.19,9.83,-5.14,5.22,-29.05,4
-0.88,-0.00,0.44,14.77,25.45,8.42,-4.91,4.93,-29.79,4
-0.90,-0.02,0.47,8.91,18.80,1.16,-4.49,5.19,-30.79,4
-0.87,-0.00,0.49,4.09,8.54,-3.05,-3.98,5.14,-30.91,4
-0.88,-0.01,0.49,4.03,-3.05,1.77,-4.10,5.11,-30.74,4
-0.88,-0.00,0.48,-3.78,-16.66,-6.77,-4.70,4.46,-31.05,4
-0.88,0.01,0.45,-6.47,-26.18,-6.23,-4.28,3.65,-30.15,4
-0.91,0.03,0.43,-10.93,-33.87,-5.55,-4.85,4.09,-29.22,4
-0.91,0.04,0.40,-10.99,-36.74,-3.85,-4.76,3.09,-28.77,4
-0.93,0.05,0.37,-9.89,-38.02,-2.81,-5.03,2.12,-28.26,4
-0.93,0.04,0.31,-13.00,-34.42,-3.30,-5.92,2.01,-28.53,4
-0.94,0.08,0.31,-4.15,-30.21,4.52,-6.56,1.82,-27.27,4
-0.94,0.07,0.27,-10.25,-20.45,-1.83,-6.67,1.59,-26.48,4
-0.97,0.07,0.26,-4.94,-17.82,5.98,-6.75,1.67,-26.71,4
-0.98,0.07,0.24,-3.23,-23.07,1.22,-7.07,2.00,-26.15,4
-0.97,0.08,0.23,-2.01,-28.08,4.03,-7.25,1.38,-25.76,4
-0.98,0.08,0.19,-5.07,-30.27,-0.12,-7.32,1.21,-25.31,4
-0.98,0.07,0.16,-1.10,-31.07,5.86,-7.28,1.09,-25.02,4
-0.98,0.08,0.14,-4.21,-31.43,5.74,-8.11,0.89,-23.36,4
-1.00,0.07,0.11,-2.93,-28.99,6.71,-8.03,1.29,-23.47,4
-1.00,0.06,0.07,-9.83,-29.54,-4.33,-7.58,1.42,-22.61,4
-0.99,0.09,0.05,-5.43,-31.80,1.16,-8.39,0.94,-22.01,4
-1.03,0.09,0.01,4.64,-28.63,-3.17,-8.42,0.83,-21.39,4
-0.97,0.09,-0.01,-4.46,-26.67,-2.75,-8.70,0.32,-20.70,4
-1.03,0.08,-0.02,-6.35,-27.40,0.43,-9.16,0.38,-20.12,4
-1.00,0.09,-0.06,-4.76,-21.85,-4.33,-9.42,0.57,-19.19,4
-0.98,0.09,-0.07,-4.15,-22.22,0.00,-9.01,0.15,-19.19,4
-1.02,0.11,-0.09,-5.37,-21.55,-3.48,-9.42,0.24,-18.09,4
-0.97,0.10,-0.11,-1.89,-22.16,-5.00,-9.16,0.34,-18.65,4
-0.98,0.12,-0.13,-2.20,-25.27,0.61,-9.94,-0.40,-16.58,4
-1.00,0.11,-0.17,7.02,-23.68,-3.23,-10.05,-0.52,-16.91,4
-0.95,0.11,-0.18,-1.65,-32.84,-0.37,-9.92,-0.11,-16.33,4
-0.98,0.12,-0.21,-5.62,-34.18,5.00,-9.81,-0.35,-15.01,4
-0.95,0.11,-0.24,-0.37,-26.61,7.39,-10.17,-0.27,-14.50,4
-0.97,0.08,-0.28,-2.01,-31.56,8.97,-9.56,-0.42,-14.17,4
-0.95,0.09,-0.31,-2.69,-29.85,1.22,-10.05,0.10,-13.64,4
-0.94,0.09,-0.32,-3.72,-30.46,4.88,-9.92,0.39,-12.27,4
-0.93,0.09,-0.35,3.05,-18.80,4.88,-10.08,-0.20,-11.40,4
-0.94,0.07,-0.38,2.56,-21.73,7.32,-9.45,0.11,-13.44,4
-0.95,0.08,-0.40,1.34,-12.63,4.21,-9.18,0.34,-11.82,4
-0.91,0.07,-0.39,-0.37,-24.05,5.49,-9.08,0.22,-10.97,4
-0.92,0.07,-0.43,4.88,-20.57,2.50,-9.11,0.50,-10.53,4
-0.89,0.07,-0.43,0.67,-23.86,0.37,-9.16,1.66,-9.31,4
-0.91,0.07,-0.47,1.71,-26.00,0.61,-8.84,0.87,-9.88,4
-0.89,0.07,-0.47,4.52,-18.25,-3.91,-8.78,-0.10,-9.56,4
-0.87,0.08,-0.48,2.62,-19.10,2.26,-8.86,0.10,-9.11,4
-0.88,0.08,-0.50,3.48,-17.40,0.92,-7.95,0.15,-7.98,4
-0.86,0.06,-0.53,13.85,-17.21,-2.38,-8.52,0.11,-7.31,4
-0.86,0.08,-0.54,2.81,-12.76,-0.85,-8.61,-0.40,-7.03,4
-0.85,0.08,-0.53,5.07,-4.33,0.49,-7.82,-0.48,-7.19,4
-0.86,0.07,-0.53,4.70,1.40,5.55,-7.97,0.12,-7.01,4
-0.86,0.09,-0.53,5.86,3.78,2.44,-8.56,-0.06,-7.12,4
-0.86,0.08,-0.51,7.02,3.11,2.69,-9.07,-0.21,-7.79,4
-0.89,0.08,-0.53,8.12,7.02,4.21,-8.72,0.83,-7.04,4
-0.85,0.08,-0.48,9.28,14.59,5.43,-8.87,0.74,-7.46,4
-0.90,0.08,-0.49,6.71,17.94,6.04,-8.75,0.50,-8.44,4
-0.86,0.07,-0.45,9.22,18.98,1.16,-9.02,0.73,-8.85,4
-0.91,0.09,-0.45,8.06,11.66,2.87,-9.30,0.92,-9.16,4
-0.91,0.09,-0.43,7.93,12.39,-2.75,-9.77,1.25,-10.99,4
-0.91,0.09,-0.42,9.83,12.76,4.21,-9.20,0.50,-10.03,4
-0.91,0.09,-0.39,9.83,15.38,1.04,-9.86,0.44,-10.77,4
-0.93,0.09,-0.38,12.33,18.68,4.33,-10.19,0.07,-11.07,4
-0.92,0.09,-0.36,10.50,21.61,3.17,-9.51,0.50,-11.56,4
-0.95,0.09,-0.34,10.38,17.82,2.50,-9.75,1.22,-12.05,4
-0.94,0.10,-0.31,16.48,23.74,-6.41,-9.88,0.26,-13.06,4
-0.96,0.11,-0.28,15.75,25.21,-0.06,-10.42,0.57,-13.45,4
-0.95,0.11,-0.26,12.39,25.45,-2.38,-10.16,0.38,-14.05,4
-0.98,0.12,-0.23,12.33,26.92,4.21,-10.06,0.18,-14.48,4
-0.97,0.11,-0.20,13.73,25.33,2.81,-10.52,0.44,-15.66,4
-0.99,0.12,-0.17,12.82,31.31,11.90,-10.24,0.45,-16.44,4
-0.99,0.10,-0.14,15.14,31.80,9.22,-10.39,1.27,-16.54,4
-0.98,0.10,-0.10,6.77,26.06,9.46,-9.83,1.15,-17.22,4
-1.01,0.10,-0.08,12.45,29.36,6.10,-10.13,1.29,-17.72,4
-0.97,0.09,-0.05,10.44,30.70,5.86,-9.63,1.93,-19.18,4
-1.02,0.09,-0.00,13.06,32.23,2.26,-10.00,1.45,-19.42,4
-0.97,0.09,0.03,11.72,32.71,1.83,-9.81,1.71,-19.69,4
-1.01,0.08,0.07,13.31,36.25,11.54,-8.83,1.89,-21.06,4
-0.98,0.08,0.09,9.16,32.71,2.38,-8.53,2.17,-20.78,4
-1.01,0.08,0.14,8.73,30.27,7.63,-8.35,2.38,-23.43,4
-0.97,0.07,0.17,7.39,33.51,4.88,-7.98,2.64,-23.78,4
-0.97,0.05,0.21,9.64,31.43,4.94,-7.69,3.03,-25.61,4
-0.96,0.06,0.23,12.63,33.57,4.76,-7.43,2.99,-27.31,4
-0.96,0.05,0.27,14.47,35.28,7.87,-6.67,3.16,-26.92,4
-0.93,0.04,0.31,13.24,35.89,9.52,-6.13,2.89,-27.66,4
-0.94,0.04,0.35,12.27,36.99,14.40,-5.40,3.58,-28.52,4
-0.91,0.01,0.39,14.40,33.45,14.71,-4.69,4.33,-27.70,4
-0.90,0.01,0.42,8.61,28.20,14.83,-4.00,4.47,-29.65,4
-0.90,-0.02,0.44,10.86,15.99,9.70,-3.48,4.30,-30.19,4
-0.91,-0.03,0.45,5.68,0.73,5.19,-3.81,4.52,-30.08,4
-0.88,-0.01,0.44,5.13,-6.53,0.98,-3.71,4.58,-29.70,4
-0.89,-0.03,0.43,2.87,-7.02,-2.99,-3.89,4.24,-28.99,4
-0.90,-0.01,0.44,3.54,-4.88,-4.52,-3.86,4.57,-30.65,4
-0.89,-0.00,0.43,2.69,1.46,-1.71,-4.61,4.63,-30.55,4
-0.90,-0.00,0.45,-0.73,2.87,-12.02,-4.03,4.47,-29.47,4
-0.89,0.01,0.44,-6.47,1.16,-20.51,-4.81,4.15,-30.19,4
-0.87,0.06,0.45,-11.60,-2.14,-38.70,-5.03,2.95,-30.82,4
-0.88,0.12,0.46,-14.95,-3.17,-39.00,-4.88,1.42,-30.57,4
-0.88,0.16,0.45,-10.93,4.03,-42.54,-5.22,-0.09,-30.19,4
-0.86,0.20,0.45,-13.18,4.76,-28.44,-4.92,-0.66,-31.24,4
-0.86,0.23,0.45,-11.84,6.90,-26.12,-5.02,-2.04,-31.14,4
-0.85,0.26,0.46,-13.79,4.03,-21.48,-5.62,-2.49,-31.99,4
-0.83,0.29,0.46,-15.50,3.23,-22.22,-5.29,-4.26,-32.43,4
-0.83,0.32,0.46,-20.87,0.12,-26.31,-5.71,-4.54,-32.42,4
-0.81,0.36,0.45,-20.14,-2.08,-24.90,-5.22,-6.29,-31.75,4
-0.80,0.38,0.43,-25.76,-2.20,-28.44,-5.21,-6.90,-33.85,4
-0.78,0.43,0.43,-17.52,0.31,-23.19,-5.18,-7.98,-32.78,4
-0.78,0.45,0.42,-11.23,4.33,-17.46,-4.71,-9.18,-32.28,4
-0.76,0.47,0.42,-4.94,6.90,-15.32,-4.85,-9.84,-32.63,4
-0.76,0.49,0.44,-0.55,8.79,-5.98,-4.52,-9.50,-33.15,4
-0.75,0.49,0.44,6.10,5.31,-1.10,-4.46,-9.58,-33.08,4
-0.75,0.49,0.44,3.97,-1.89,6.29,-4.63,-9.50,-33.45,4
-0.76,0.49,0.44,3.66,-7.32,15.56,-4.96,-9.18,-33.23,4
-0.76,0.46,0.43,9.03,-10.19,23.62,-5.35,-9.31,-33.02,4
-0.78,0.45,0.43,8.36,-9.46,26.31,-5.31,-8.13,-33.35,4
-0.79,0.41,0.42,15.81,-10.07,31.86,-4.75,-7.79,-33.15,4
-0.81,0.40,0.43,20.75,-9.46,33.02,-5.21,-6.97,-33.20,4
-0.83,0.35,0.42,27.40,-9.46,44.49,-5.24,-5.97,-32.92,4
-0.86,0.30,0.44,35.64,-14.10,51.33,-5.02,-4.00,-32.60,4
-0.87,0.22,0.42,21.85,-16.36,44.80,-4.99,-3.25,-33.13,4
-0.87,0.20,0.41,17.40,-16.36,42.60,-5.33,-2.12,-31.01,4
-0.90,0.15,0.39,15.56,-17.03,41.50,-5.40,-0.85,-29.96,4
-0.92,0.12,0.40,10.50,-26.49,34.30,-5.55,0.89,-31.43,4
-0.91,0.09,0.35,14.77,-30.27,33.69,-5.49,1.49,-29.36,4
-0.96,0.04,0.33,11.90,-36.62,31.80,-5.86,2.31,-29.06,4
-0.92,0.04,0.30,16.24,-38.09,29.91,-5.96,2.83,-29.17,4
-0.98,0.00,0.27,18.37,-38.21,21.42,-6.46,4.02,-27.78,4
-0.98,-0.02,0.20,8.85,-41.63,22.77,-6.46,4.59,-26.67,4
-0.97,-0.02,0.19,8.48,-44.07,22.40,-6.20,5.16,-25.81,4
-0.97,-0.07,0.14,9.40,-43.52,36.87,-6.41,4.92,-24.34,4
-1.00,-0.10,0.12,6.71,-45.59,36.32,-6.25,6.74,-22.14,4
-1.01,-0.16,0.07,5.62,-41.44,36.19,-5.93,6.95,-21.58,4
-1.00,-0.17,0.02,0.06,-37.90,13.55,-6.08,7.37,-21.00,4
-0.99,-0.18,-0.02,-0.12,-35.22,22.83,-5.96,8.13,-20.69,4
-0.97,-0.22,-0.03,-9.58,-31.62,19.65,-5.99,7.91,-19.51,4
-0.99,-0.22,-0.07,-7.39,-21.30,34.18,-5.83,8.70,-19.31,4
-0.97,-0.24,-0.07,-0.73,-10.86,26.06,-5.07,9.27,-19.91,4
-0.97,-0.29,-0.07,5.19,-7.08,28.08,-4.50,10.19,-19.93,4
-0.96,-0.31,-0.09,7.57,-13.06,16.72,-4.20,10.02,-18.77,4
-0.96,-0.31,-0.10,6.23,-19.23,8.85,-4.25,10.72,-19.14,4
-0.95,-0.32,-0.15,10.25,-21.48,9.46,-4.64,11.05,-18.38,4
-0.94,-0.34,-0.15,6.71,-23.68,2.20,-3.72,10.91,-17.07,4
-0.93,-0.31,-0.16,5.13,-18.98,8.18,-4.43,11.02,-17.40,4
-0.93,-0.33,-0.18,7.32,-15.44,8.12,-3.86,11.12,-17.32,4
-0.94,-0.33,-0.19,4.70,-14.04,3.66,-3.81,11.35,-16.04,4
-0.91,-0.35,-0.22,9.34,-19.29,10.50,-4.15,11.28,-15.99,4
-0.94,-0.34,-0.22,-2.20,-23.07,8.30,-3.45,10.82,-15.41,4
-0.91,-0.36,-0.24,-1.83,-35.10,4.76,-4.15,11.69,-15.20,4
-0.92,-0.34,-0.27,1.40,-26.98,2.81,-3.83,11.58,-14.84,4
-0.89,-0.36,-0.28,5.31,-16.78,8.61,-4.06,11.82,-14.29,4
-0.89,-0.37,-0.30,3.36,-9.89,15.93,-3.74,11.68,-14.06,4
-0.88,-0.37,-0.29,2.38,-9.83,11.23,-3.34,11.78,-13.56,4
-0.89,-0.39,-0.31,-0.24,-22.03,26.43,-3.33,12.62,-13.39,4
-0.87,-0.40,-0.32,-6.84,-12.33,3.30,-2.95,12.57,-12.46,4
-0.86,-0.41,-0.33,0.00,-14.40,-2.44,-2.49,12.89,-13.51,4
-0.85,-0.40,-0.34,4.33,-11.90,-3.30,-2.67,12.60,-13.26,4
-0.86,-0.41,-0.35,5.68,-11.54,13.43,-2.91,12.41,-12.38,4
-0.85,-0.39,-0.34,5.49,0.24,-1.83,-2.39,12.38,-13.22,4
-0.86,-0.41,-0.36,4.15,4.58,2.56,-2.14,13.22,-13.53,4
-0.86,-0.40,-0.33,3.11,5.62,-7.08,-2.78,12.63,-12.62,4
-0.88,-0.36,-0.32,4.94,9.28,-18.98,-2.58,11.93,-12.63,4
-0.87,-0.38,-0.32,4.27,9.58,-29.79,-4.17,11.43,-14.50,4
-0.89,-0.33,-0.30,7.51,8.12,-18.43,-4.28,11.00,-14.18,4
-0.91,-0.33,-0.30,8.18,17.27,-27.77,-4.85,10.05,-14.07,4
-0.93,-0.31,-0.28,2.08,14.95,-20.08,-5.20,9.84,-14.42,4
-0.93,-0.27,-0.26,6.84,15.38,-22.40,-5.76,9.28,-14.69,4
-0.94,-0.24,-0.24,8.30,13.18,-21.42,-5.79,8.97,-14.70,4
-0.97,-0.22,-0.23,7.26,12.08,-24.23,-6.31,8.39,-15.21,4
-0.97,-0.17,-0.19,17.40,24.41,-53.10,-7.21,7.25,-16.28,4
-0.95,-0.16,-0.21,12.39,11.05,-42.30,-7.60,6.67,-15.73,4
-1.01,-0.09,-0.18,8.18,11.23,-19.90,-8.06,5.63,-16.11,4
-0.98,-0.07,-0.15,8.67,16.11,-30.15,-8.54,4.96,-16.04,4
-0.98,-0.04,-0.13,7.51,11.41,-12.76,-8.97,4.77,-18.40,4
-1.01,-0.04,-0.13,7.51,17.52,-18.07,-8.61,4.10,-17.79,4
-0.98,-0.02,-0.11,6.35,14.04,-21.67,-9.23,3.50,-19.30,4
-1.01,0.01,-0.09,7.69,10.07,-16.42,-9.69,2.87,-18.24,4
-1.00,0.05,-0.07,10.62,14.04,-20.32,-9.68,2.33,-18.47,4
-1.00,0.06,-0.05,14.77,15.81,-20.20,-10.24,1.86,-19.60,4
-1.01,0.07,-0.04,10.74,17.58,-4.76,-9.70,1.06,-20.13,4
-0.99,0.09,-0.01,13.24,13.37,-8.06,-9.34,1.43,-21.56,4
-0.98,0.10,0.01,15.75,11.35,-10.86,-9.56,0.96,-21.09,4
-1.00,0.10,0.01,15.14,11.60,-18.55,-9.31,1.10,-20.91,4
-0.99,0.14,0.03,12.57,7.69,-24.23,-9.63,-0.06,-21.15,4
-0.99,0.14,0.03,18.43,12.27,-20.39,-10.11,-0.48,-21.89,4
-0.98,0.18,0.06,12.76,13.49,-16.05,-9.69,-0.76,-21.17,4
-0.98,0.20,0.08,21.97,17.88,-18.74,-10.13,-0.60,-21.74,4
-0.96,0.21,0.11,19.78,14.71,-13.98,-9.85,-1.42,-23.10,4
-0.98,0.25,0.13,18.92,13.18,-21.00,-10.01,-2.38,-22.89,4
-0.95,0.23,0.14,5.55,2.87,-15.50,-9.73,-2.43,-23.60,4
-0.97,0.26,0.14,3.48,0.18,-8.12,-9.73,-2.39,-23.27,4
-0.95,0.26,0.13,-3.23,-9.22,-5.80,-9.34,-2.91,-23.73,4
-0.95,0.28,0.14,-3.72,-10.38,-2.93,-9.27,-4.17,-23.00,4
-0.95,0.26,0.10,-5.62,-13.00,6.65,-9.79,-3.92,-23.49,4
-0.95,0.28,0.10,-5.31,-14.28,8.42,-9.38,-3.54,-23.35,4
-0.95,0.27,0.09,-7.39,-16.05,6.53,-9.59,-3.83,-21.87,4
-0.97,0.26,0.06,-11.11,-23.01,1.59,-8.73,-4.00,-22.17,4
-0.95,0.27,0.04,-12.27,-27.89,4.70,-9.39,-4.44,-22.18,4
-0.99,0.27,0.00,-11.41,-26.98,-2.44,-9.57,-4.33,-20.72,4
-0.93,0.29,-0.02,-15.32,-24.41,-10.86,-9.41,-4.99,-20.54,4
-0.96,0.29,-0.04,-4.88,-25.63,-8.97,-9.75,-5.70,-19.79,4
-0.98,0.31,-0.09,-15.93,-32.53,-13.49,-10.35,-5.85,-18.91,4
-0.92,0.31,-0.13,-17.27,-46.02,-11.23,-10.35,-6.37,-17.40,4
-0.94,0.30,-0.18,-24.84,-51.82,-7.14,-10.56,-7.09,-17.57,4
-0.88,0.31,-0.24,-19.53,-53.83,-3.66,-10.68,-7.03,-15.31,4
-0.89,0.34,-0.26,-29.66,-50.96,-5.80,-10.61,-7.34,-14.65,4
-0.91,0.32,-0.32,8.18,-32.53,-4.94,-10.03,-7.89,-12.06,4
-0.89,0.30,-0.38,-13.43,-32.23,-4.64,-10.55,-7.86,-12.59,4
-0.87,0.32,-0.39,-7.20,-35.40,0.79,-10.14,-7.82,-11.43,4
-0.84,0.32,-0.41,-13.43,-38.76,-3.11,-9.83,-7.58,-8.92,4
-0.84,0.33,-0.46,-12.08,-37.60,-7.51,-9.27,-7.36,-8.56,4
-0.81,0.31,-0.48,-14.04,-34.67,-4.27,-9.74,-7.97,-8.39,4
-0.82,0.32,-0.53,-14.89,-33.75,-0.85,-9.77,-7.90,-6.93,4
-0.77,0.31,-0.54,-8.12,-26.86,1.28,-9.64,-7.86,-5.97,4
-0.78,0.28,-0.58,-12.21,-21.85,2.14,-8.95,-7.57,-6.42,4
-0.76,0.29,-0.59,-12.63,-19.41,3.48,-9.07,-7.56,-5.79,4
-0.76,0.26,-0.62,-20.81,-28.99,2.81,-8.62,-7.18,-5.24,4
-0.73,0.26,-0.64,-8.85,-20.51,3.05,-7.76,-7.52,-3.43,4
-0.73,0.24,-0.66,-9.03,-17.27,5.43,-8.09,-7.28,-3.36,4
-0.73,0.22,-0.68,0.73,-7.87,7.45,-7.91,-6.31,-2.61,4
-0.73,0.23,-0.67,3.17,-0.06,14.10,-7.75,-6.73,-4.15,4
-0.74,0.20,-0.65,0.92,0.06,18.25,-8.04,-6.52,-3.26,4
-0.73,0.21,-0.66,7.20,8.54,19.29,-8.19,-5.52,-3.61,4
-0.74,0.19,-0.66,2.87,9.95,21.67,-8.52,-4.75,-3.32,4
-0.76,0.18,-0.64,2.62,14.59,25.02,-8.67,-4.21,-4.30,4
-0.78,0.16,-0.62,11.72,28.38,25.88,-9.34,-3.22,-4.32,4
-0.81,0.13,-0.60,7.93,29.54,25.63,-9.53,-2.38,-5.73,4
-0.83,0.12,-0.58,13.31,34.18,27.77,-9.78,-2.28,-6.69,4
-0.84,0.10,-0.53,13.61,29.79,24.78,-9.90,-1.66,-7.41,4
-0.87,0.09,-0.49,20.20,33.63,19.90,-10.30,-1.46,-7.42,4
-0.86,0.10,-0.49,23.62,36.01,16.42,-9.52,-0.42,-8.54,4
-0.91,0.08,-0.46,9.83,31.37,15.20,-9.97,-0.59,-9.44,4
-0.91,0.08,-0.40,9.89,34.61,9.22,-10.10,-0.34,-11.10,4
-0.94,0.06,-0.39,17.64,31.92,13.12,-10.16,-0.44,-11.99,4
-0.94,0.07,-0.35,8.79,28.02,15.99,-10.51,0.56,-11.90,4
-0.97,0.06,-0.31,10.99,36.13,18.19,-10.24,0.81,-14.14,4
-0.97,0.03,-0.28,9.22,35.40,21.79,-9.88,2.19,-13.92,4
-0.98,0.01,-0.23,5.31,36.01,20.51,-9.73,2.32,-15.77,4
-0.99,-0.01,-0.21,8.00,34.79,19.84,-9.73,2.28,-16.52,4
-0.99,-0.01,-0.17,5.00,28.56,16.97,-9.23,3.27,-17.60,4
-1.00,-0.03,-0.14,2.08,21.06,17.33,-9.20,2.83,-17.22,4
-0.99,-0.05,-0.12,6.10,27.59,16.72,-8.61,4.09,-17.99,4
-1.00,-0.04,-0.08,5.98,33.20,23.68,-8.69,4.16,-20.26,4
-0.98,-0.08,-0.05,7.39,38.88,18.07,-8.37,4.77,-21.44,4
-1.00,-0.11,0.01,24.84,45.23,17.03,-7.28,4.88,-21.47,4
-0.97,-0.10,0.06,22.52,38.76,22.16,-6.84,5.52,-22.38,4
-1.00,-0.11,0.07,18.31,35.16,19.47,-6.29,6.04,-22.14,4
-0.98,-0.15,0.11,13.06,25.82,21.79,-5.81,6.45,-23.30,4
-0.99,-0.20,0.11,12.08,23.50,22.09,-5.27,7.30,-23.45,4
-0.96,-0.18,0.15,4.46,19.53,22.09,-5.09,7.68,-24.41,4
-0.96,-0.21,0.17,6.84,24.48,18.25,-3.98,8.54,-25.07,4
-0.95,-0.22,0.21,10.25,27.89,19.04,-3.78,8.85,-25.83,4
-0.94,-0.24,0.21,17.27,32.71,18.74,-2.92,8.64,-25.48,4
-0.93,-0.26,0.26,30.52,23.74,24.29,-2.75,9.42,-25.62,4
-0.92,-0.30,0.27,13.73,21.48,21.06,-1.67,9.90,-27.12,4
-0.90,-0.31,0.29,14.34,11.60,20.94,-1.28,10.71,-27.92,4
-0.90,-0.33,0.31,17.15,13.85,20.26,-0.84,11.56,-27.12,4
-0.89,-0.35,0.31,17.70,12.33,21.18,-0.21,11.66,-26.06,4
-0.89,-0.37,0.29,51.64,20.08,26.86,1.05,12.54,-26.12,4
-0.87,-0.41,0.31,43.15,16.24,20.08,1.06,12.85,-26.40,4
-0.84,-0.43,0.32,16.78,16.24,20.26,2.33,13.67,-25.50,4
-0.84,-0.46,0.33,11.90,5.92,13.61,2.64,13.53,-25.38,4
-0.83,-0.46,0.34,13.61,3.30,12.70,2.64,14.03,-25.61,4
-0.82,-0.46,0.33,15.26,1.46,4.94,2.51,14.39,-25.85,4
-0.83,-0.48,0.33,7.08,5.00,-1.16,3.15,14.20,-25.83,4
-0.82,-0.46,0.33,8.85,-3.66,-7.51,3.20,14.48,-26.60,4
-0.85,-0.47,0.34,16.91,-11.72,-17.15,2.48,14.23,-25.45,4
-0.83,-0.39,0.33,11.90,-17.88,-38.39,1.89,13.16,-24.37,4
-0.86,-0.42,0.28,4.46,-20.08,-31.43,1.00,13.02,-25.42,4
-0.90,-0.35,0.29,-2.32,-30.58,-41.38,0.32,12.29,-25.42,4
-0.92,-0.35,0.23,0.98,-31.98,-41.14,-1.54,11.39,-24.74,4
-0.93,-0.29,0.22,-4.39,-39.25,-35.89,-2.83,10.60,-23.91,4
-0.95,-0.22,0.20,-2.50,-40.89,-46.20,-3.85,9.58,-21.95,4
-0.96,-0.21,0.15,-24.48,-45.78,-53.34,-5.07,7.97,-23.14,4
-0.99,-0.17,0.11,-5.31,-48.58,-38.76,-5.93,7.36,-21.39,4
-0.99,-0.10,0.09,-6.29,-51.57,-40.41,-6.80,6.30,-21.73,4
-1.01,-0.05,0.00,-4.03,-42.18,-33.63,-7.54,5.10,-19.26,4
-0.99,-0.02,0.00,-16.17,-40.16,-32.41,-8.11,4.15,-18.57,4
-1.02,-0.01,-0.03,-10.01,-38.21,-21.61,-7.82,3.41,-18.41,4
-1.01,0.04,-0.08,3.97,-29.17,-24.78,-9.22,2.84,-17.37,4
-0.98,0.05,-0.11,1.40,-32.47,-22.58,-9.24,1.99,-17.26,4
-1.00,0.08,-0.14,4.21,-37.54,-24.35,-9.14,1.01,-16.19,4
-1.00,0.10,-0.17,-20.08,-30.33,-28.63,-8.92,0.72,-14.71,4
-0.95,0.12,-0.19,-13.73,-29.05,-25.76,-9.70,-0.92,-15.20,4
-0.99,0.15,-0.24,-13.18,-31.43,-18.31,-9.81,-1.51,-15.03,4
-0.96,0.17,-0.26,-17.27,-34.36,-19.35,-9.95,-2.19,-14.22,4
-0.94,0.17,-0.30,-19.17,-35.46,-18.62,-10.21,-2.62,-14.12,4
-0.95,0.19,-0.33,-16.78,-35.95,-15.44,-10.08,-2.81,-12.34,4
-0.90,0.20,-0.37,-17.46,-34.00,-22.03,-10.02,-3.31,-12.15,4
-0.90,0.21,-0.40,-16.24,-30.40,-18.25,-9.62,-4.60,-11.12,4
-0.89,0.22,-0.44,-16.36,-32.96,-20.26,-10.00,-5.36,-11.07,4
-0.86,0.22,-0.47,-17.88,-31.56,-10.86,-9.40,-5.42,-11.11,4
-0.86,0.24,-0.49,-19.47,-34.67,-5.62,-9.51,-5.64,-8.57,4
-0.84,0.23,-0.52,-6.35,-18.49,-3.54,-8.96,-5.91,-8.81,4
-0.83,0.22,-0.52,1.65,-7.63,1.71,-8.85,-5.47,-7.41,4
-0.83,0.22,-0.53,4.70,-4.21,2.75,-9.06,-5.14,-8.03,4
-0.83,0.23,-0.52,6.59,0.24,4.58,-9.13,-5.53,-8.14,4
-0.84,0.22,-0.53,6.71,2.38,7.14,-9.31,-5.46,-8.51,4
-0.83,0.22,-0.51,9.95,13.73,18.62,-9.79,-4.94,-8.86,4
-0.84,0.21,-0.50,9.95,17.21,19.84,-9.84,-4.47,-8.18,4
-0.88,0.18,-0.49,11.96,19.23,23.86,-9.67,-3.22,-9.00,4
-0.85,0.18,-0.45,9.03,17.33,22.16,-10.01,-2.77,-10.50,4
-0.91,0.16,-0.44,8.73,18.19,27.10,-10.27,-1.79,-9.28,4
-0.89,0.14,-0.41,13.49,20.75,17.58,-10.17,-1.67,-10.25,4
-0.91,0.11,-0.39,17.64,28.14,27.71,-10.31,-1.05,-10.77,4
-0.92,0.13,-0.36,21.12,37.35,18.37,-10.41,-0.51,-12.30,4
-0.95,0.09,-0.32,20.08,38.02,21.48,-10.24,-0.74,-12.72,4
-0.96,0.07,-0.29,22.40,40.65,28.08,-10.19,1.28,-13.34,4
-0.99,0.05,-0.23,19.96,35.89,34.85,-9.96,1.70,-15.11,4
-0.99,0.04,-0.21,17.52,33.51,32.17,-9.38,2.77,-16.22,4
-0.98,0.02,-0.16,24.41,37.48,26.49,-9.47,2.76,-15.41,4
-0.99,-0.02,-0.15,21.48,34.12,25.51,-8.96,3.56,-15.99,4
-0.99,-0.03,-0.09,19.65,40.71,29.85,-8.94,4.88,-18.74,4
-1.01,-0.07,-0.06,21.42,40.89,34.12,-8.24,5.43,-18.51,4
-1.00,-0.09,-0.01,20.20,43.64,27.59,-8.12,6.42,-19.36,4
-1.00,-0.13,0.03,15.14,35.10,43.52,-7.29,7.13,-20.20,4
-1.01,-0.16,0.06,5.86,28.93,34.06,-6.80,7.98,-21.57,4
-0.97,-0.20,0.09,3.66,17.82,29.85,-5.87,8.33,-22.88,4
-0.96,-0.21,0.11,5.25,22.77,25.51,-5.27,8.90,-22.79,4
-0.96,-0.24,0.14,2.93,21.91,24.17,-4.71,10.21,-23.50,4
-0.96,-0.26,0.15,5.37,21.79,25.02,-4.02,10.24,-23.03,4
-0.93,-0.28,0.18,0.79,15.14,23.01,-3.94,10.94,-23.69,4
-0.97,-0.30,0.19,3.30,8.30,20.26,-2.89,10.66,-24.33,4
-0.90,-0.31,0.18,11.78,-0.92,18.31,-2.70,11.41,-23.80,4
-0.94,-0.33,0.20,17.88,-4.70,26.37,-2.51,11.50,-23.65,4
-0.89,-0.34,0.18,6.53,-1.46,10.62,-1.90,11.91,-24.11,4
-0.97,-0.35,0.20,11.23,-6.59,-3.78,-1.44,11.78,-23.77,4
-0.92,-0.33,0.18,-0.49,-4.52,-32.71,-2.48,12.23,-23.69,4
-0.94,-0.34,0.20,8.61,-8.00,-24.48,-2.60,10.88,-24.19,4
-0.92,-0.23,0.19,4.70,-2.56,-26.55,-3.39,9.80,-24.52,4
-0.94,-0.27,0.17,0.73,-1.71,-25.94,-4.32,9.63,-23.62,4
-0.96,-0.22,0.18,4.94,-10.31,-16.78,-4.39,8.94,-24.02,4
-0.97,-0.22,0.16,-0.18,-17.64,-25.94,-4.31,8.07,-23.49,4
-0.99,-0.16,0.16,2.50,-24.60,-25.33,-5.00,7.45,-23.57,4
-0.94,-0.11,0.13,-14.10,-32.65,-35.83,-5.62,7.03,-23.02,4
-0.99,-0.04,0.15,-8.18,-26.37,-50.23,-6.65,5.25,-22.03,4
-1.05,-0.01,0.07,-40.22,6.90,-72.75,-8.35,3.81,-23.27,4
-1.01,0.11,-0.10,15.38,-20.81,-51.70,-8.65,2.23,-22.47,4
-0.99,0.07,0.08,-4.82,-12.15,-12.70,-8.76,2.20,-22.66,4
-1.00,0.16,-0.01,-16.36,-10.93,-3.42,-9.68,1.16,-23.33,4
-0.99,0.10,0.07,-14.40,-15.93,-3.05,-9.38,0.98,-22.28,4
-1.00,0.14,-0.03,-1.40,-13.61,2.50,-9.36,0.98,-21.78,4
-0.99,0.10,0.04,16.30,-11.47,39.79,-9.39,1.34,-21.69,4
-1.00,0.06,0.02,40.41,-8.97,39.25,-9.11,2.45,-20.53,4
-0.99,-0.04,0.01,54.63,-11.23,53.47,-8.50,3.81,-20.29,4
-1.03,-0.05,-0.00,55.73,-18.98,64.39,-8.06,5.55,-19.23,4
-0.98,-0.10,-0.02,43.52,-17.52,44.92,-7.30,6.75,-17.85,4
-0.99,-0.16,-0.05,41.32,-26.06,52.98,-6.25,7.51,-17.15,4
-0.97,-0.18,-0.07,47.97,-26.61,28.69,-5.99,8.84,-17.18,4
-0.97,-0.22,-0.12,38.76,-27.16,26.86,-5.47,8.96,-15.73,4
-0.96,-0.23,-0.15,16.30,-26.18,30.76,-4.82,9.92,-14.21,4
-0.97,-0.28,-0.17,15.87,-29.05,22.46,-4.31,9.85,-14.11,4
-0.95,-0.27,-0.22,13.61,-35.16,12.70,-3.37,11.19,-12.84,4
-0.95,-0.29,-0.21,-13.61,-36.87,-1.65,-3.76,10.73,-12.34,4
-0.94,-0.28,-0.25,-5.07,-42.66,0.73,-3.76,10.83,-12.24,4
-0.93,-0.28,-0.29,-36.01,-40.41,-13.79,-3.71,10.90,-11.39,4
-0.93,-0.27,-0.28,-24.60,-39.00,-16.54,-3.74,10.23,-10.95,4
-0.89,-0.25,-0.33,-12.63,-28.32,-25.39,-4.10,10.01,-10.29,4
-0.92,-0.23,-0.35,-2.08,-28.63,-29.24,-4.17,9.06,-11.36,4
-0.91,-0.22,-0.38,1.95,-21.73,-32.47,-5.36,8.87,-11.60,4
-0.90,-0.17,-0.39,-9.52,-31.98,-38.64,-5.25,8.33,-9.50,4
-0.91,-0.14,-0.44,0.92,-33.57,-42.79,-6.12,7.20,-9.44,4
-0.90,-0.10,-0.45,-10.68,-31.37,-36.99,-6.51,6.12,-7.75,4
-0.88,-0.09,-0.43,-9.16,-26.31,-41.99,-6.36,4.97,-7.86,4
-0.88,-0.05,-0.49,-15.08,-31.98,-29.24,-7.37,4.14,-8.01,4
-0.85,-0.02,-0.50,1.34,-16.30,-35.46,-7.23,3.76,-7.65,4
-0.87,-0.02,-0.53,-3.91,-15.08,-25.39,-7.47,3.30,-7.09,4
-0.87,0.03,-0.52,8.00,-5.98,-23.74,-7.80,2.34,-6.45,4
-0.86,0.05,-0.53,19.90,1.46,-34.42,-8.18,1.61,-6.73,4
-0.85,0.11,-0.50,23.68,9.34,-39.61,-8.76,0.51,-6.53,4
-0.84,0.14,-0.49,29.11,5.49,-26.61,-9.59,-0.73,-6.91,4
-0.87,0.21,-0.46,29.42,20.26,-31.37,-9.57,-1.50,-7.23,4
-0.89,0.17,-0.49,12.08,12.51,-26.79,-9.73,-2.69,-7.67,4
-0.88,0.25,-0.45,19.96,5.43,-22.03,-10.07,-2.94,-6.98,4
-0.87,0.26,-0.42,21.00,14.22,-26.43,-10.30,-4.06,-8.09,4
-0.87,0.27,-0.42,2.75,9.03,-21.55,-10.60,-5.03,-8.46,4
-0.86,0.34,-0.40,30.46,17.88,-27.65,-10.63,-6.02,-9.31,4
-0.87,0.31,-0.38,13.31,19.10,-25.57,-10.55,-7.10,-9.90,4
-0.87,0.39,-0.35,24.17,24.05,-17.09,-10.94,-7.21,-10.39,4
-0.86,0.40,-0.31,41.44,30.64,-16.78,-11.44,-8.41,-11.28,4
-0.87,0.42,-0.29,36.01,27.40,-15.50,-11.19,-8.13,-11.95,4
-0.90,0.42,-0.26,22.95,25.57,-3.97,-11.49,-8.69,-13.16,4
-0.86,0.46,-0.21,19.84,19.29,-2.93,-11.63,-9.13,-13.29,4
-0.89,0.43,-0.19,22.77,26.37,1.65,-11.06,-8.91,-14.17,4
-0.87,0.46,-0.14,27.95,27.59,9.09,-11.29,-9.23,-15.86,4
-0.89,0.43,-0.11,45.29,38.09,12.82,-11.49,-8.50,-16.41,4
-0.90,0.43,-0.03,42.72,37.54,22.64,-11.45,-7.75,-17.94,4
-0.94,0.40,0.01,42.97,38.57,26.43,-11.13,-6.73,-18.73,4
-0.91,0.38,0.05,37.35,29.54,27.28,-10.47,-6.23,-20.64,4
-0.91,0.35,0.09,29.72,22.71,25.94,-11.00,-5.77,-20.67,4
-0.93,0.34,0.13,18.80,21.48,21.55,-10.72,-5.08,-21.42,4
-0.92,0.31,0.15,13.98,22.09,10.74,-10.67,-4.44,-21.42,4
-0.94,0.30,0.17,20.08,19.41,17.88,-10.57,-4.13,-21.96,4
-0.93,0.28,0.20,19.35,14.83,15.01,-10.80,-3.91,-22.60,4
-0.94,0.27,0.22,16.72,6.47,24.29,-10.35,-2.27,-22.67,4
-0.95,0.25,0.24,21.00,7.87,29.91,-9.61,-1.83,-22.34,4
-0.94,0.21,0.23,15.93,8.79,27.47,-9.51,-0.70,-24.02,4
-0.95,0.18,0.28,8.97,6.10,37.35,-9.88,-0.34,-23.07,4
-0.94,0.16,0.26,21.00,10.62,33.94,-9.30,1.11,-23.28,4
-0.96,0.11,0.29,20.69,8.18,35.22,-8.87,2.09,-23.57,4
-0.95,0.08,0.28,8.97,5.07,34.85,-8.22,3.22,-24.78,4
-0.94,0.04,0.30,12.82,2.87,32.23,-8.40,4.72,-23.60,4
-0.96,0.03,0.30,7.81,1.34,29.30,-7.28,4.64,-22.88,4
-0.95,-0.02,0.30,9.95,-2.69,32.59,-6.81,5.30,-22.88,4
-0.95,-0.04,0.30,5.25,-3.36,29.91,-6.74,5.68,-23.89,4
-0.95,-0.07,0.32,3.78,-6.90,35.58,-6.21,6.65,-23.46,4
-0.96,-0.11,0.29,9.52,-7.75,32.84,-5.87,7.37,-23.06,4
-0.94,-0.16,0.27,7.14,-13.55,46.63,-5.65,8.23,-22.90,4
-0.94,-0.19,0.27,-3.48,-12.70,46.51,-4.48,8.87,-23.21,4
-0.94,-0.23,0.26,6.84,-16.11,44.07,-4.68,9.75,-23.05,4
-0.92,-0.25,0.26,0.37,-16.05,34.00,-3.45,10.63,-22.35,4
-0.94,-0.30,0.23,16.30,-13.61,27.71,-3.19,10.90,-22.14,4
-0.91,-0.30,0.21,16.91,-16.48,22.71,-2.80,12.11,-21.95,4
-0.93,-0.34,0.19,19.17,-18.98,21.30,-2.50,11.79,-20.74,4
-0.92,-0.36,0.15,20.81,-24.29,22.83,-2.29,12.67,-19.58,4
-0.92,-0.37,0.15,16.30,-32.10,20.81,-1.81,13.45,-18.73,4
-0.93,-0.38,0.12,8.42,-30.94,9.52,-1.97,13.65,-18.49,4
-0.91,-0.39,0.09,6.29,-28.02,2.44,-1.97,13.12,-17.46,4
-0.92,-0.38,0.04,7.08,-28.50,1.53,-1.56,13.55,-17.32,4
-0.93,-0.38,0.03,0.31,-30.52,-4.21,-1.86,12.94,-16.49,4
-0.92,-0.37,0.01,-0.06,-32.71,-0.92,-2.16,12.92,-16.59,4
-0.93,-0.38,-0.01,-7.45,-20.39,-9.28,-2.28,12.99,-15.76,4
-0.93,-0.37,-0.03,-3.97,-20.08,-7.57,-2.62,12.77,-16.43,4
-0.94,-0.36,-0.04,-7.08,-20.08,-9.40,-2.60,13.04,-15.92,4
-0.93,-0.36,-0.05,-2.75,-24.78,-9.34,-2.82,12.61,-15.43,4
-0.95,-0.33,-0.07,-2.26,-23.68,-9.70,-3.44,12.27,-14.92,4
-0.93,-0.32,-0.09,-1.28,-19.23,-9.77,-3.48,11.71,-14.76,4
-0.96,-0.31,-0.11,-6.53,-19.29,-14.53,-4.46,11.93,-14.94,4
-0.95,-0.30,-0.11,-1.59,-20.08,-8.67,-4.66,10.89,-15.01,4
-0.94,-0.30,-0.14,-0.24,-15.56,-7.81,-4.11,10.50,-14.51,4
-0.95,-0.29,-0.15,1.16,-23.07,-2.75,-4.35,10.77,-13.71,4
-0.97,-0.30,-0.17,0.00,-25.27,-4.76,-4.58,10.72,-13.83,4
-0.95,-0.26,-0.18,-6.35,-25.82,-28.56,-4.37,10.40,-13.32,4
-0.96,-0.22,-0.21,-10.50,-40.28,-42.42,-5.77,9.09,-13.51,4
-0.97,-0.18,-0.24,-16.05,-42.79,-40.53,-6.16,8.41,-13.34,4
-0.94,-0.15,-0.27,-11.90,-32.35,-29.48,-6.60,7.23,-12.28,4
-0.96,-0.15,-0.29,-6.71,-22.77,-10.99,-7.04,6.35,-12.27,4
-0.94,-0.14,-0.30,-3.11,-17.33,-9.28,-7.07,6.27,-11.72,4
-0.95,-0.11,-0.32,-0.79,-12.70,-3.11,-7.03,5.94,-10.62,4
-0.94,-0.13,-0.33,0.37,-9.70,-3.42,-7.26,6.13,-11.34,4
-0.94,-0.12,-0.33,-0.92,-12.15,-5.43,-7.18,5.82,-11.21,4
-0.93,-0.11,-0.34,-1.28,-16.60,-0.49,-7.09,6.19,-10.88,4
-0.94,-0.13,-0.37,-1.59,-12.51,-2.08,-7.50,6.34,-10.72,4
-0.92,-0.12,-0.35,-1.95,-7.51,5.31,-7.09,6.25,-9.95,4
-0.93,-0.12,-0.36,0.61,-2.69,4.82,-6.67,7.13,-11.47,4
-0.93,-0.14,-0.37,-0.12,-3.05,4.09,-6.54,6.70,-9.70,4
-0.93,-0.14,-0.37,0.79,-6.90,6.65,-6.64,6.40,-11.56,4
-0.92,-0.14,-0.37,0.92,-5.74,2.69,-6.91,6.81,-10.18,4
-0.92,-0.15,-0.37,-3.11,-7.02,3.78,-6.64,6.75,-10.11,4
-0.92,-0.14,-0.39,1.34,-5.43,-0.49,-7.03,6.95,-10.55,4
-0.92,-0.15,-0.38,0.00,-8.91,-3.17,-6.99,6.38,-10.80,4
-0.91,-0.14,-0.39,3.36,-5.74,-3.11,-7.09,6.54,-9.89,4
-0.92,-0.13,-0.38,2.75,-4.88,1.04,-6.96,6.49,-9.77,4
-0.93,-0.15,-0.39,3.66,-0.06,1.89,-6.63,6.47,-9.29,4
-0.92,-0.14,-0.39,4.33,-4.70,-0.79,-6.21,6.65,-9.46,4
-0.92,-0.14,-0.38,2.87,-4.76,4.88,-6.68,7.07,-10.27,4
-0.91,-0.13,-0.38,5.62,-2.50,-1.40,-6.57,7.24,-10.27,4
-0.92,-0.14,-0.39,4.15,-3.42,1.04,-6.90,7.20,-10.00,4
-0.93,-0.13,-0.39,3.66,-0.73,4.15,-6.41,6.95,-10.41,4
-0.91,-0.13,-0.39,4.09,0.79,6.65,-6.58,7.10,-11.79,4
-0.93,-0.14,-0.38,4.21,2.93,10.68,-6.75,7.12,-10.29,4
-0.92,-0.16,-0.38,3.72,0.79,9.28,-6.92,7.56,-9.79,4
-0.91,-0.16,-0.37,4.88,0.49,6.84,-6.42,7.23,-10.58,4
-0.91,-0.17,-0.37,6.16,0.61,2.93,-6.42,7.47,-10.53,4
-0.93,-0.16,-0.37,5.55,-1.65,3.30,-6.37,8.13,-10.64,4
-0.93,-0.17,-0.37,5.07,0.24,3.72,-6.67,7.62,-10.35,4
-0.92,-0.16,-0.36,5.31,-1.65,2.62,-6.58,7.51,-10.24,4
-0.92,-0.18,-0.37,4.82,-0.37,5.13,-6.84,7.30,-10.28,4
-0.92,-0.17,-0.37,5.19,1.83,3.72,-6.45,7.76,-11.04,4
-0.91,-0.18,-0.36,5.07,1.16,9.77,-6.70,7.69,-10.68,4
-0.93,-0.17,-0.35,4.70,4.70,10.07,-6.45,7.96,-11.50,4
-0.92,-0.20,-0.35,5.37,0.00,4.33,-6.14,7.81,-11.35,4
-0.93,-0.18,-0.35,4.33,-1.10,4.39,-6.10,8.67,-11.21,4
-0.91,-0.19,-0.35,7.20,3.60,6.47,-6.03,9.07,-11.51,4
-0.94,-0.20,-0.35,5.07,3.05,9.22,-5.66,8.58,-11.44,4
-0.93,-0.20,-0.33,6.59,5.19,7.87,-5.99,8.58,-11.56,4
-0.94,-0.21,-0.33,7.32,7.45,4.76,-5.73,9.27,-12.22,4
-0.93,-0.20,-0.31,6.65,9.22,1.65,-5.90,8.94,-12.08,4
-0.94,-0.21,-0.31,9.09,8.85,3.78,-6.24,9.47,-11.23,4
-0.93,-0.20,-0.29,8.36,11.41,-0.73,-5.94,8.96,-12.02,4
-0.91,-0.21,-0.28,8.91,12.21,2.08,-6.24,8.72,-12.92,4
-0.95,-0.20,-0.26,13.31,22.58,3.36,-6.20,8.98,-12.50,4
-0.95,-0.21,-0.24,12.33,18.80,6.71,-6.38,9.45,-14.37,4
-0.95,-0.20,-0.22,9.34,13.18,-2.08,-7.04,9.55,-14.07,4
-0.96,-0.20,-0.21,8.85,5.74,3.72,-6.54,8.73,-14.70,4
-0.96,-0.20,-0.20,14.10,11.05,-3.36,-6.95,9.20,-14.05,4
-0.96,-0.18,-0.19,13.43,12.94,-2.81,-6.99,8.76,-14.69,4
-0.97,-0.18,-0.19,27.71,16.30,-2.38,-6.34,9.52,-14.69,4
-0.99,-0.19,-0.17,13.85,25.21,14.04,-6.73,8.64,-14.75,4
-0.96,-0.17,-0.14,24.66,24.11,1.95,-7.04,8.62,-15.22,4
-1.00,-0.17,-0.10,15.26,20.20,6.04,-6.52,9.34,-15.49,4
-0.99,-0.17,-0.09,17.46,21.36,1.10,-6.45,8.90,-14.84,4
-0.98,-0.17,-0.06,-2.56,19.23,-13.31,-6.49,8.78,-17.36,4
-1.00,-0.15,-0.04,4.15,12.51,-12.27,-7.15,8.09,-17.47,4
-0.99,-0.14,-0.03,6.29,14.40,-15.32,-6.95,8.31,-17.79,4
-0.99,-0.12,-0.02,6.29,17.52,-9.58,-7.18,7.73,-18.53,4
-0.97,-0.11,0.01,15.44,21.00,-1.89,-7.28,7.69,-19.53,4
-1.00,-0.10,0.04,18.19,24.78,-1.04,-7.75,7.34,-19.51,4
-1.00,-0.10,0.06,13.98,23.74,-7.45,-8.02,7.68,-18.74,4
-0.98,-0.10,0.08,5.74,12.02,-8.85,-7.42,7.37,-20.19,4
-1.00,-0.08,0.10,9.34,7.32,-9.77,-7.39,7.12,-19.81,4
-0.99,-0.08,0.10,4.76,0.49,-1.46,-7.82,6.93,-19.96,4
-0.99,-0.06,0.11,7.20,0.37,0.00,-8.01,6.34,-19.46,4
-1.00,-0.08,0.10,3.85,4.64,1.40,-7.76,6.74,-20.45,4
-0.99,-0.07,0.12,8.42,10.38,1.65,-7.56,6.85,-20.83,4
-0.99,-0.07,0.14,9.89,10.50,4.82,-7.71,7.21,-20.53,4
-0.98,-0.08,0.14,11.66,13.43,7.26,-7.40,6.56,-20.79,4
-0.99,-0.10,0.16,13.18,7.14,12.88,-7.24,7.40,-20.79,4
-0.98,-0.10,0.17,6.84,8.12,5.62,-7.65,7.21,-21.62,4
-0.97,-0.10,0.18,5.49,4.76,-0.31,-7.01,7.51,-21.83,4
-0.99,-0.09,0.18,-5.74,0.24,-17.88,-7.20,7.53,-21.48,4
-0.96,-0.05,0.18,-6.90,-5.49,-21.97,-7.53,6.13,-22.07,4
-1.00,-0.03,0.19,-6.77,-11.05,-15.50,-7.93,5.88,-21.73,4
-1.00,-0.02,0.17,-10.31,-14.10,-16.85,-8.02,5.21,-22.01,4
-0.98,0.02,0.15,-20.39,-22.58,-22.89,-8.29,3.75,-21.98,4
-1.00,0.04,0.12,-20.57,-26.31,-27.34,-8.25,2.94,-21.35,4
-0.99,0.08,0.11,-21.06,-27.10,-32.96,-9.48,2.39,-21.70,4
-0.99,0.12,0.07,-26.79,-27.95,-42.48,-9.59,0.88,-20.95,4
-0.97,0.18,0.04,-24.17,-28.44,-43.09,-9.95,-0.56,-20.18,4
-0.98,0.22,0.02,-17.03,-23.13,-37.35,-10.41,-1.72,-20.32,4
-0.96,0.26,-0.01,-16.97,-16.97,-36.44,-10.64,-3.26,-20.31,4
-0.95,0.29,-0.02,-15.75,-19.17,-28.32,-10.64,-4.48,-19.64,4
-0.96,0.32,-0.05,-10.19,-11.66,-21.06,-10.66,-5.29,-19.17,4
-0.94,0.33,-0.06,-8.85,-10.01,-12.02,-11.43,-5.43,-18.97,4
-0.94,0.34,-0.07,-2.44,-8.06,-4.70,-11.05,-5.48,-18.02,4
-0.94,0.35,-0.07,-4.33,-7.02,-2.38,-11.05,-6.30,-19.23,4
-0.93,0.34,-0.08,-8.48,-10.01,-9.28,-10.86,-6.05,-19.46,4
-0.93,0.37,-0.09,-9.95,-9.58,-12.33,-10.75,-7.08,-18.20,4
-0.93,0.38,-0.10,-4.09,-3.42,-15.56,-11.57,-7.75,-17.96,4
-0.90,0.38,-0.12,-5.43,-5.13,-21.55,-11.33,-7.52,-17.83,4
-0.92,0.41,-0.11,-2.08,-3.05,-14.71,-11.69,-8.57,-17.94,4
-0.90,0.42,-0.13,-14.34,-8.91,-19.90,-10.94,-9.42,-18.74,4
-0.89,0.44,-0.14,-7.63,-6.59,-10.19,-10.62,-8.95,-17.66,4
-0.88,0.44,-0.15,-0.55,-6.90,-3.66,-11.04,-9.86,-16.83,4
-0.88,0.44,-0.15,-0.43,-5.62,-3.23,-10.73,-10.30,-17.75,4
-0.89,0.45,-0.16,-5.49,-10.25,0.43,-10.77,-9.89,-16.67,4
-0.89,0.45,-0.17,-0.37,-8.36,5.13,-10.83,-10.25,-18.12,4
-0.89,0.43,-0.18,1.16,-7.69,14.95,-10.94,-9.88,-16.91,4
-0.89,0.41,-0.18,12.70,-1.71,25.33,-10.85,-9.22,-17.02,4
-0.91,0.40,-0.18,21.42,-2.75,35.03,-10.89,-9.05,-16.33,4
-0.91,0.36,-0.16,18.43,-1.28,35.77,-10.83,-7.90,-17.27,4
-0.94,0.36,-0.16,21.79,0.67,50.90,-10.86,-6.49,-16.64,4
-0.95,0.30,-0.15,18.13,1.34,41.63,-10.99,-5.20,-17.61,4
-0.95,0.27,-0.14,10.80,5.68,42.05,-10.45,-4.04,-16.67,4
-0.98,0.20,-0.14,12.39,6.35,41.08,-10.89,-2.73,-18.10,4
-0.97,0.21,-0.12,6.47,1.34,38.57,-10.51,-1.45,-17.35,4
-0.97,0.16,-0.12,8.79,3.91,29.24,-10.73,-0.63,-17.53,4
-0.98,0.12,-0.13,9.46,0.98,34.42,-9.67,0.12,-18.46,4
-1.00,0.11,-0.11,12.45,0.43,37.66,-9.90,1.01,-17.36,4
-0.99,0.06,-0.11,7.93,1.46,36.13,-9.53,1.51,-17.31,4
-1.00,0.02,-0.11,11.41,5.49,44.07,-8.94,3.09,-18.32,4
-1.00,-0.03,-0.10,7.81,4.70,54.08,-8.08,4.25,-16.93,4
-0.98,-0.07,-0.09,2.81,2.32,54.26,-7.91,5.32,-18.70,4
-0.99,-0.13,-0.09,1.22,0.37,50.05,-6.98,6.20,-18.77,4
-0.98,-0.14,-0.08,6.41,3.48,42.24,-6.74,7.62,-18.12,4
-1.01,-0.21,-0.08,2.44,1.34,43.64,-6.07,8.34,-18.05,4
-0.98,-0.23,-0.08,4.64,0.49,42.72,-4.79,9.67,-18.81,4
-0.96,-0.28,-0.08,6.90,-2.87,38.88,-5.05,10.10,-18.24,4
-0.97,-0.30,-0.08,9.52,-0.61,35.10,-4.28,10.83,-17.68,4
-0.92,-0.35,-0.09,14.47,-5.19,27.10,-3.39,10.82,-19.41,4
-0.95,-0.36,-0.08,9.89,-4.70,29.97,-3.04,11.79,-18.05,4
-0.91,-0.39,-0.10,10.44,-5.49,24.84,-2.75,12.23,-18.33,4
-0.92,-0.42,-0.10,11.72,-5.25,33.39,-2.12,12.96,-16.64,4
-0.91,-0.45,-0.09,35.28,-7.93,31.07,-1.29,14.00,-17.42,4
-0.90,-0.45,-0.12,11.47,-2.01,17.03,-1.07,14.50,-16.37,4
-0.87,-0.46,-0.12,10.68,-8.91,12.63,-0.70,14.14,-16.69,4
-0.89,-0.48,-0.14,11.54,-9.52,6.90,-0.65,14.40,-16.49,4
-0.87,-0.47,-0.14,11.60,-14.16,2.44,-0.31,14.70,-15.87,4
-0.89,-0.48,-0.17,8.06,-11.96,-1.77,-0.82,14.72,-15.48,4
-0.86,-0.45,-0.17,5.74,-17.46,-11.54,-0.73,14.36,-15.26,4
-0.87,-0.46,-0.20,13.37,-19.47,-14.22,-0.42,14.65,-15.25,4
-0.89,-0.44,-0.19,-0.37,-14.40,-19.65,-1.38,13.50,-14.90,4
-0.89,-0.43,-0.22,1.59,-23.93,-13.49,-1.67,13.83,-13.85,4
-0.91,-0.41,-0.24,-0.06,-18.37,-26.00,-2.11,13.56,-12.72,4
-0.88,-0.37,-0.24,-1.89,-20.26,-22.58,-2.72,12.99,-13.23,4
-0.92,-0.35,-0.26,0.31,-25.76,-24.72,-2.93,12.26,-12.93,4
-0.91,-0.33,-0.29,-3.54,-37.48,-33.14,-3.92,11.52,-13.06,4
-0.92,-0.31,-0.31,-4.15,-40.34,-35.40,-4.42,11.16,-11.25,4
-0.90,-0.27,-0.36,-10.07,-47.42,-52.31,-4.93,10.28,-11.49,4
-0.90,-0.20,-0.39,-10.19,-50.72,-47.97,-6.14,8.80,-10.75,4
-0.89,-0.19,-0.43,-4.94,-30.09,-24.05,-6.70,7.67,-9.73,4
-0.87,-0.18,-0.44,-7.39,-28.08,-9.46,-6.92,7.59,-10.46,4
-0.89,-0.17,-0.46,-5.37,-18.49,-10.93,-7.10,7.08,-10.06,4
-0.88,-0.16,-0.48,-2.38,-16.85,-5.68,-6.82,7.19,-9.96,4
-0.88,-0.16,-0.48,-0.06,-16.60,-9.09,-6.62,6.88,-8.23,4
-0.86,-0.15,-0.49,-2.38,-19.29,-5.49,-6.82,6.82,-8.74,4
-0.86,-0.14,-0.51,4.88,-7.26,-6.41,-6.99,6.56,-8.20,4
-0.86,-0.15,-0.51,5.19,-8.85,-8.36,-6.99,6.34,-8.40,4
-0.85,-0.12,-0.51,9.09,-4.88,-14.22,-7.35,5.98,-7.74,4
-0.86,-0.12,-0.52,7.51,-3.78,-7.14,-7.36,5.54,-8.28,4
-0.88,-0.10,-0.52,12.70,8.18,-11.35,-7.59,5.77,-7.48,4
-0.88,-0.10,-0.51,14.83,12.08,-9.34,-7.91,5.75,-7.90,4
-0.86,-0.07,-0.48,23.99,21.55,-13.43,-8.09,4.93,-7.82,4
-0.91,-0.05,-0.48,11.90,17.64,2.32,-8.36,4.76,-8.19,4
-0.89,-0.04,-0.45,13.49,12.76,-14.89,-8.57,4.33,-8.94,4
-0.88,-0.02,-0.43,10.80,2.50,-10.19,-8.81,3.89,-8.74,4
-0.91,0.00,-0.43,11.78,0.37,-9.58,-8.67,3.70,-10.36,4
-0.89,-0.01,-0.44,7.45,-0.06,-3.97,-9.33,3.49,-9.19,4
-0.91,0.01,-0.43,7.39,-1.89,0.98,-9.35,3.52,-9.35,4
-0.92,-0.01,-0.43,8.91,22.58,18.37,-8.91,3.28,-8.75,4
-0.92,-0.01,-0.39,8.67,28.32,17.27,-8.91,3.69,-10.10,4
-0.92,-0.03,-0.36,13.00,16.97,-5.37,-9.06,3.54,-10.71,4
-0.96,0.00,-0.35,17.64,16.48,-5.25,-9.58,3.96,-11.77,4
-0.94,0.01,-0.33,24.05,22.89,-16.91,-9.81,2.97,-12.07,4
-0.96,0.02,-0.30,25.76,29.79,-1.83,-10.11,2.69,-12.54,4
-0.98,0.03,-0.28,25.63,36.19,0.18,-9.66,3.03,-13.42,4
-0.96,0.05,-0.22,27.77,33.02,1.28,-9.68,3.12,-14.04,4
-0.99,0.04,-0.20,15.69,15.14,1.10,-9.72,2.59,-14.86,4
-0.99,0.05,-0.18,15.08,15.63,-0.73,-10.08,2.33,-14.60,4
-0.98,0.05,-0.17,14.22,14.59,0.24,-10.42,2.98,-14.87,4
-0.99,0.06,-0.14,14.40,15.20,6.16,-10.42,3.12,-15.50,4
-0.99,0.05,-0.13,13.98,19.78,0.55,-10.19,3.00,-15.36,4
-1.00,0.06,-0.10,13.55,15.38,3.66,-9.84,2.65,-17.42,4
-1.00,0.05,-0.08,14.22,16.17,2.26,-9.95,3.41,-16.48,4
-0.99,0.05,-0.06,13.67,17.09,4.15,-9.62,2.54,-16.98,4
-1.00,0.05,-0.04,9.52,10.62,2.20,-10.05,3.08,-17.07,4
-1.00,0.05,-0.03,12.51,13.37,3.30,-9.59,3.33,-18.59,4
-1.00,0.05,-0.01,16.91,18.49,7.63,-9.96,2.86,-18.32,4
-1.00,0.04,0.01,16.36,19.53,10.25,-9.34,3.15,-19.64,4
-1.01,0.02,0.03,15.63,21.73,11.96,-9.01,4.43,-18.88,4
-1.00,0.02,0.07,14.28,18.86,6.90,-9.03,4.47,-19.89,4
-1.00,0.02,0.08,16.30,23.68,5.86,-9.00,4.52,-19.79,4
-1.00,0.01,0.11,18.80,23.68,12.82,-8.75,4.48,-20.96,4
-0.98,-0.01,0.13,26.31,33.81,17.03,-8.39,5.19,-20.94,4
-0.98,-0.03,0.18,24.41,25.09,19.17,-7.37,5.58,-22.08,4
-0.97,-0.05,0.20,21.67,23.86,15.93,-7.53,6.30,-22.19,4
-0.99,-0.07,0.22,14.53,17.88,10.68,-7.14,6.65,-22.17,4
-0.96,-0.07,0.24,9.77,14.34,6.10,-6.69,6.79,-23.19,4
-0.96,-0.07,0.25,13.49,14.77,6.16,-6.77,7.03,-22.68,4
-0.94,-0.09,0.26,21.24,18.43,9.40,-6.34,7.32,-23.11,4
-0.96,-0.09,0.29,14.10,20.57,6.96,-6.26,7.48,-22.69,4
-0.94,-0.10,0.32,21.24,21.12,8.24,-5.69,8.25,-23.34,4
-0.94,-0.12,0.33,24.72,22.83,13.61,-5.20,8.79,-24.38,4
-0.91,-0.15,0.35,28.99,25.88,16.24,-4.79,9.02,-23.94,4
-0.93,-0.16,0.39,30.52,20.14,26.12,-4.08,9.73,-24.56,4
-0.89,-0.21,0.39,26.92,21.91,21.36,-4.02,10.33,-24.32,4
-0.89,-0.22,0.41,18.37,21.30,15.87,-3.53,10.91,-24.78,4
-0.86,-0.22,0.42,8.91,19.59,-3.36,-3.61,10.62,-25.33,4
-0.88,-0.21,0.46,8.24,13.79,0.12,-2.87,10.93,-24.84,4
-0.86,-0.22,0.45,0.43,11.35,-3.72,-3.14,11.06,-25.93,4
-0.86,-0.21,0.48,6.90,8.48,1.77,-2.80,11.05,-25.42,4
-0.85,-0.22,0.48,6.90,11.41,1.59,-2.55,10.55,-25.16,4
-0.85,-0.22,0.50,3.54,10.13,1.46,-2.89,10.63,-27.25,4
-0.84,-0.22,0.50,-1.46,10.19,-7.45,-2.86,11.24,-26.56,4
-0.83,-0.19,0.52,-8.12,14.71,-18.55,-2.40,10.40,-27.69,4
-0.81,-0.14,0.52,-15.14,8.54,-28.63,-3.39,9.70,-28.02,4
-0.83,-0.12,0.56,-19.78,2.44,-30.82,-3.45,8.97,-28.71,4
-0.82,-0.08,0.54,-41.20,-2.26,-50.35,-3.88,7.47,-29.00,4
-0.81,0.01,0.54,-43.40,-16.54,-43.64,-4.49,5.26,-28.87,4
-0.88,0.07,0.51,-62.44,-29.54,-59.02,-4.79,3.00,-29.16,4
-0.84,0.11,0.48,-21.91,-19.35,-12.94,-5.44,1.79,-30.05,4
-0.86,0.15,0.49,-6.23,-20.26,-3.05,-5.83,1.20,-28.58,4
-0.91,0.14,0.46,-4.46,-30.58,10.25,-6.19,0.72,-29.10,4
-0.87,0.15,0.42,-11.78,-39.31,7.81,-6.27,0.60,-27.75,4
-0.93,0.16,0.39,-13.06,-54.20,2.62,-7.04,0.92,-27.50,4
-0.94,0.14,0.30,-7.39,-58.41,4.52,-7.80,1.07,-26.72,4
-0.96,0.19,0.29,23.44,-60.73,3.85,-8.35,0.65,-24.60,4
-0.97,0.07,0.22,13.55,-49.50,-0.61,-8.45,0.74,-24.34,4
-0.97,0.13,0.20,24.78,-33.51,12.39,-8.46,0.72,-22.00,4
-0.93,0.14,0.16,28.69,-26.43,12.70,-9.06,1.27,-21.24,4
-1.04,0.10,0.15,10.50,-16.11,15.69,-8.95,1.89,-20.70,4
-0.94,0.11,0.16,5.31,-12.51,15.56,-8.50,2.21,-20.06,4
-0.98,0.09,0.10,48.71,-20.51,22.71,-8.68,2.72,-20.59,4
-1.02,0.05,0.11,11.78,-30.88,20.39,-8.94,3.67,-18.49,4
-0.99,0.04,0.07,12.21,-24.41,0.49,-8.40,3.45,-18.74,4
-0.97,0.04,0.07,3.85,-21.30,-2.99,-8.83,3.45,-17.04,4
-0.99,0.01,0.02,1.40,-11.84,-3.48,-9.25,3.28,-17.65,4
-1.06,0.05,0.04,4.88,-11.66,10.50,-8.92,4.42,-16.80,4
-0.98,-0.00,-0.01,17.94,15.14,7.45,-9.11,3.99,-17.66,4
-1.04,0.03,0.04,17.15,-1.95,6.71,-8.79,4.17,-17.60,4
-0.96,0.02,0.04,-4.09,0.85,-4.39,-9.36,3.77,-16.97,4
-1.02,0.05,0.06,-10.13,-5.19,-4.15,-9.27,4.76,-17.76,4
-0.96,0.02,0.03,-38.70,-4.94,-1.04,-9.24,3.43,-18.16,4
-0.96,0.04,0.04,-38.76,-10.80,3.60,-9.29,4.11,-18.04,4
-1.03,-0.01,0.00,-29.85,-12.63,6.59,-9.25,3.77,-17.16,4
-0.99,0.04,0.01,-20.26,-9.52,1.77,-9.33,3.39,-18.18,4
-1.04,0.09,-0.00,-13.61,-7.75,-8.73,-8.90,2.80,-18.08,4
-1.04,0.09,0.03,11.17,2.62,0.92,-8.84,2.50,-18.55,4
-0.99,0.05,-0.00,10.80,8.18,10.25,-9.23,3.08,-17.54,4
-1.02,0.09,0.06,11.96,6.65,10.68,-8.80,3.05,-19.29,4
-0.99,-0.01,0.00,67.63,22.77,37.96,-8.47,3.94,-19.18,4
-1.04,0.03,0.10,19.29,5.55,9.40,-8.01,4.55,-18.03,4
-0.98,-0.01,0.03,-0.31,-0.31,0.67,-8.45,4.66,-19.09,4
-1.01,0.01,0.07,-13.00,-4.82,-10.38,-9.13,4.81,-18.19,4
-0.97,0.02,0.06,5.98,-4.76,2.01,-8.94,4.27,-19.12,4
-1.04,-0.02,0.05,-7.14,-6.47,8.97,-8.92,4.85,-19.34,4
-0.99,-0.01,0.04,-2.81,0.24,-2.32,-8.68,3.93,-19.23,4
-1.02,0.06,0.08,-0.85,-3.48,-2.56,-8.40,4.04,-19.30,4
-0.99,0.05,0.05,4.33,-2.75,1.46,-9.12,3.76,-18.36,4
-0.99,0.01,0.02,2.38,-4.46,3.23,-9.03,3.97,-19.18,4
-0.99,0.03,0.03,9.52,-2.14,1.83,-9.30,3.98,-19.73,4
-1.01,0.02,0.07,5.92,-3.42,4.52,-8.63,3.75,-18.79,4
-1.00,-0.01,0.04,0.61,-3.72,2.81,-9.08,4.69,-18.10,4
-1.01,0.01,0.04,1.53,-2.93,4.64,-8.95,4.42,-18.96,4
-0.99,0.02,0.06,-0.79,-2.69,-2.32,-9.17,4.33,-19.25,4
-0.99,0.03,0.05,2.75,-4.33,-2.01,-8.87,3.61,-18.76,4
-1.01,0.01,0.03,2.50,-3.91,1.89,-9.12,4.03,-18.62,4
-0.98,0.05,0.05,2.38,-2.50,-2.62,-8.91,3.69,-19.35,4
-1.00,0.02,0.03,3.66,-3.36,1.04,-8.85,3.89,-18.77,4
-1.00,0.04,0.04,1.34,-3.11,1.40,-9.19,3.87,-17.38,4
-0.99,0.02,0.03,1.53,-4.27,2.32,-9.45,3.80,-18.38,4
-0.99,0.03,0.04,3.23,-2.14,3.23,-9.53,3.83,-18.68,4
-0.99,0.02,0.04,2.93,-2.87,2.14,-9.29,4.39,-19.02,4
-1.02,0.04,0.05,0.73,-2.32,-3.66,-9.33,3.53,-18.63,4
-0.99,0.03,0.04,6.47,-3.54,1.59,-9.25,3.44,-18.29,4
-1.00,0.04,0.05,5.49,-1.59,0.92,-9.22,3.53,-19.13,4
-0.99,0.04,0.04,5.68,-2.01,-0.79,-9.25,4.21,-19.81,4
-0.99,0.04,0.04,2.69,-3.23,-0.73,-9.22,3.58,-18.82,4
-1.02,0.04,0.04,3.85,-3.17,0.73,-9.79,3.27,-19.48,4
-0.99,0.04,0.04,7.57,-3.60,5.07,-9.48,3.86,-19.23,4
-1.00,0.04,0.05,13.37,-3.60,9.34,-9.33,4.03,-19.25,4
-1.00,0.04,0.04,12.70,-0.49,1.95,-9.28,3.83,-18.92,4
-1.01,0.04,0.06,14.77,-0.31,0.31,-9.25,3.72,-18.27,4
-1.00,0.02,0.03,12.82,-0.85,4.39,-8.86,4.49,-18.99,4
-1.02,0.04,0.04,22.64,1.40,4.76,-8.69,4.38,-18.60,4
-0.99,0.02,0.05,21.67,4.21,3.36,-8.53,4.17,-18.14,4
-1.01,0.01,0.07,28.32,4.09,7.26,-8.64,3.92,-17.30,4
-1.00,0.02,0.08,39.25,3.05,14.40,-8.53,5.10,-17.36,4
-1.00,-0.02,0.08,74.40,2.87,18.31,-8.58,5.19,-17.79,4
-0.98,-0.04,0.07,65.00,-2.99,5.43,-8.62,6.32,-17.96,4
-0.97,-0.06,0.07,71.41,0.37,1.22,-8.59,6.16,-15.89,4
-1.00,-0.08,0.05,69.27,17.52,-6.10,-8.00,5.75,-15.94,4
-1.00,-0.04,0.08,31.86,-5.74,-11.60,-7.89,5.41,-15.36,4
-1.00,0.02,0.12,35.77,-22.16,-31.68,-8.74,4.92,-14.99,4
-1.04,-0.04,0.04,46.26,-16.48,-20.51,-8.79,4.99,-14.17,4
-1.00,0.05,0.07,49.74,-9.28,-16.60,-9.19,4.26,-12.38,4
-0.99,0.06,0.07,31.98,0.43,-7.32,-8.90,3.91,-11.96,4
-1.00,0.03,0.07,71.59,-5.13,-0.24,-9.63,4.04,-10.42,4
-1.03,0.01,0.02,54.02,-9.58,-1.28,-10.00,3.55,-10.66,4
-0.95,0.02,0.07,57.43,-4.64,1.10,-8.54,2.72,-9.79,4
-1.01,-0.00,0.02,44.62,-5.43,-11.96,-8.86,2.39,-9.33,4
-1.01,0.04,0.09,-0.67,1.46,-19.17,-8.47,1.25,-9.53,4
-0.94,0.06,0.03,-30.46,-1.10,-7.02,-8.86,1.17,-9.14,4
-1.01,0.07,0.07,43.88,2.87,-15.69,-8.69,0.77,-9.08,4
-1.00,0.09,0.05,12.63,14.04,-4.82,-9.03,0.24,-9.25,4
-0.99,0.07,-0.01,61.83,-7.51,9.77,-8.94,-0.29,-9.63,4
-1.00,0.05,0.10,76.11,-11.41,10.68,-8.22,-0.51,-8.86,4
-0.99,0.06,0.10,56.15,-3.66,10.01,-8.18,-1.38,-7.78,4
-0.98,0.03,0.10,79.10,-6.47,9.70,-8.40,-1.06,-7.58,4
-1.00,0.02,0.06,54.75,-10.07,7.51,-7.87,-1.12,-7.19,4
-1.00,0.05,0.02,55.18,-0.67,-6.96,-8.13,-1.97,-6.35,4
-0.99,0.01,0.07,111.27,88.20,57.43,-8.57,-1.14,-7.03,4
-0.93,-0.05,0.17,128.91,75.32,17.82,-9.09,-1.99,-8.57,4
-0.94,-0.06,0.28,40.10,7.14,-14.53,-9.02,-2.61,-9.77,4
-0.95,-0.06,0.20,54.44,-56.15,-3.66,-8.53,-3.12,-8.42,4
-1.01,-0.05,0.18,62.87,-60.61,-1.28,-7.81,-3.32,-6.99,4
-0.97,-0.09,0.08,44.01,-53.41,-1.46,-7.91,-3.76,-5.18,4
-0.99,-0.08,0.06,31.13,-24.41,-4.46,-7.98,-4.06,-4.92,4
-0.98,-0.15,0.07,10.56,-13.37,-15.99,-7.91,-4.55,-3.63,4
-0.94,-0.05,0.01,-15.20,-8.18,-5.25,-7.69,-5.26,-4.27,4
-1.05,-0.08,0.06,18.37,-2.26,-9.95,-7.68,-5.15,-2.25,4
-1.06,0.06,0.03,-12.82,-5.13,-13.73,-7.74,-5.20,-3.26,4
-1.00,-0.03,0.02,4.82,-14.28,2.32,-7.70,-4.99,-2.95,4
-0.96,-0.06,0.04,-10.38,-0.24,7.08,-7.64,-4.93,-3.00,4
-1.00,-0.00,0.05,0.55,6.29,-5.92,-7.67,-5.60,-3.99,4
-1.05,0.02,0.04,-4.88,11.05,-2.50,-7.02,-5.98,-4.15,4
-0.99,-0.02,0.07,-5.25,1.71,3.78,-7.67,-5.32,-4.94,4
-1.02,0.06,0.06,-7.08,-4.27,4.15,-7.41,-5.54,-4.81,4
-1.04,0.00,0.03,-5.86,-14.59,4.64,-7.28,-5.36,-3.86,4
-1.07,-0.03,0.03,-13.06,11.35,2.62,-7.37,-5.65,-4.43,4
-1.01,-0.05,0.15,-13.67,34.24,7.81,-7.10,-5.41,-4.10,4
-0.89,0.02,0.23,-4.46,21.42,-8.30,-7.90,-5.49,-5.77,4
-0.99,0.01,0.02,3.17,-48.95,-33.14,-6.93,-6.04,-4.72,4
-1.05,0.11,-0.08,17.46,-42.05,-8.24,-6.77,-7.04,-3.43,4
-1.01,0.00,0.09,18.31,25.15,21.85,-6.51,-6.87,-3.60,4
-0.95,0.04,0.06,11.11,24.17,8.24,-7.21,-7.06,-4.30,4
-1.00,0.02,0.03,18.68,-5.98,0.61,-6.77,-7.09,-3.96,4
-1.03,0.01,0.03,3.48,4.82,3.91,-7.12,-6.70,-3.78,4
-1.00,0.02,0.06,6.77,8.06,2.93,-6.97,-7.03,-4.10,4
-0.99,0.01,0.10,7.02,11.66,8.48,-7.12,-6.93,-4.14,4
-1.01,0.01,0.11,6.65,-0.85,0.92,-7.32,-6.57,-4.33,4
-1.00,0.01,0.09,1.16,0.55,1.46,-7.64,-6.59,-4.90,4
-1.00,0.02,0.10,3.54,-5.25,-0.73,-7.71,-5.90,-4.58,4
-0.99,0.01,0.09,6.65,-2.75,3.66,-8.11,-6.48,-4.75,4
-0.99,0.00,0.10,4.88,-1.22,1.83,-7.34,-6.08,-4.70,4
-1.00,0.02,0.09,5.31,-3.85,3.60,-8.11,-5.86,-5.03,4
-1.00,-0.00,0.10,5.00,-0.85,2.56,-7.96,-6.23,-4.54,4
-1.00,0.02,0.09,5.43,-3.23,2.81,-7.89,-6.18,-4.76,4
-0.99,0.00,0.10,3.36,3.23,3.36,-7.21,-6.10,-5.29,4
-1.00,0.01,0.10,5.62,-1.77,2.93,-7.91,-5.70,-4.59,4
-0.99,0.00,0.11,5.37,-0.43,3.23,-7.40,-5.80,-4.63,4
-1.00,0.00,0.10,5.25,-4.21,1.71,-7.92,-5.71,-5.10,4
-0.99,0.00,0.10,4.33,-0.73,2.62,-7.65,-5.87,-5.04,4
-1.00,0.00,0.10,4.15,-2.14,2.87,-7.76,-5.91,-5.00,4
-0.99,0.01,0.11,3.36,-1.34,2.26,-7.45,-5.74,-5.00,4
-1.00,0.02,0.09,2.38,-2.75,2.56,-7.68,-5.77,-5.82,4
-0.99,0.00,0.11,2.32,0.79,1.71,-7.82,-6.04,-5.04,4
-1.00,0.01,0.11,3.97,-2.93,1.53,-7.89,-5.13,-4.10,4
-1.00,0.00,0.10,4.21,-1.71,2.44,-7.81,-6.34,-5.90,4
-1.00,0.01,0.10,4.76,-3.85,1.95,-7.65,-6.19,-3.61,4
-0.99,0.01,0.11,2.93,2.69,3.05,-8.15,-5.76,-6.03,4
-0.99,0.01,0.11,6.10,-3.66,1.10,-8.02,-6.01,-4.93,4
-1.00,0.00,0.11,3.23,-2.93,1.28,-8.52,-6.37,-4.97,4
-0.99,0.01,0.11,2.99,-2.87,1.71,-7.82,-5.32,-5.55,4
-1.00,0.01,0.10,6.10,-5.62,1.59,-8.35,-5.79,-5.20,4
-1.00,0.01,0.10,2.38,-1.46,1.34,-8.08,-5.91,-5.00,4
-1.00,0.01,0.10,4.39,-5.00,1.53,-8.20,-5.98,-6.01,4
-1.00,0.01,0.10,4.03,-0.73,1.59,-8.26,-6.09,-4.57,4
-1.00,0.01,0.10,4.03,-2.93,2.38,-8.41,-5.63,-4.46,4
-1.00,0.01,0.10,3.23,0.55,2.44,-8.61,-5.73,-5.49,4
-1.00,0.01,0.11,5.68,-1.53,2.38,-8.24,-5.96,-4.97,4
-0.99,0.01,0.11,3.78,-3.48,1.34,-8.30,-6.02,-5.37,4
-1.00,0.01,0.11,4.88,-4.52,1.53,-8.19,-6.05,-5.15,4
-1.00,0.01,0.10,5.98,-3.60,2.69,-8.48,-5.64,-5.42,4
-1.00,0.01,0.10,6.23,-3.48,1.83,-8.28,-5.51,-5.62,4
-0.99,0.01,0.10,4.15,-3.17,1.95,-8.23,-6.18,-5.40,4
-1.00,0.01,0.10,3.72,-3.05,1.95,-7.80,-5.52,-4.92,4
-0.99,0.01,0.10,2.87,-2.87,1.89,-8.11,-5.97,-5.51,4
-0.99,0.01,0.11,4.64,-0.43,2.20,-7.47,-5.46,-5.38,4
-0.99,0.01,0.10,4.58,-3.05,1.77,-8.13,-6.03,-5.29,4
-0.99,0.01,0.10,5.98,-1.10,2.44,-8.25,-5.41,-5.30,4
-0.99,0.01,0.11,5.19,-2.62,1.04,-8.02,-5.81,-5.19,4
-1.00,0.01,0.09,3.36,-3.48,2.32,-8.40,-5.83,-4.92,4
-0.99,0.01,0.11,1.89,2.87,2.14,-7.97,-5.93,-5.86,4
-1.00,0.01,0.11,3.85,-4.09,1.77,-8.11,-5.38,-6.01,4
-1.00,0.01,0.10,1.59,-1.10,2.32,-8.30,-5.00,-6.01,4
-1.00,0.01,0.11,4.46,-2.38,2.08,-8.35,-5.83,-5.57,4
-1.00,0.01,0.11,2.87,-0.61,2.99,-8.01,-5.68,-5.33,4
-1.00,0.01,0.10,2.93,-3.05,1.59,-7.48,-5.54,-5.20,4
-1.00,0.02,0.11,5.86,-1.10,2.62,-8.35,-5.70,-4.42,4
-1.00,0.00,0.10,4.64,-4.64,1.46,-8.09,-5.90,-5.54,4
-0.99,0.01,0.11,4.88,-1.77,1.95,-7.92,-5.86,-6.12,4
-1.00,0.01,0.11,4.82,-3.23,1.89,-7.96,-5.86,-5.15,4
-1.00,0.02,0.11,2.62,-2.44,2.26,-8.02,-5.94,-5.38,4
-1.00,0.01,0.11,6.77,-3.05,2.38,-8.08,-5.83,-5.31,4
-1.00,0.00,0.11,4.88,-0.31,2.69,-8.06,-5.30,-4.70,4
-1.00,0.01,0.10,5.43,-3.91,1.59,-8.15,-5.48,-5.90,4
-0.99,0.01,0.10,6.41,-4.09,1.71,-7.68,-5.44,-5.93,4
-1.00,0.01,0.11,6.10,-4.64,1.22,-8.19,-5.83,-5.26,4
-0.99,0.02,0.10,3.23,-1.89,2.50,-7.68,-5.77,-5.21,4
-0.99,0.01,0.10,7.39,-3.60,1.53,-7.92,-5.70,-4.57,4
-0.99,0.01,0.10,4.88,-2.75,2.38,-7.76,-6.15,-4.96,4
-1.00,0.01,0.10,4.70,-2.44,1.59,-7.32,-5.80,-5.52,4
-1.00,0.01,0.10,5.74,-2.20,2.81,-7.70,-5.87,-4.14,4
-1.00,0.01,0.10,4.58,-3.11,1.40,-7.81,-5.70,-4.90,4
-1.00,0.01,0.10,5.00,-2.93,2.69,-7.62,-5.77,-5.05,4
-1.00,0.01,0.10,4.39,-3.54,1.34,-8.04,-5.74,-5.68,4
-1.00,0.01,0.10,4.76,-3.36,2.32,-8.02,-6.03,-5.03,4
-1.00,-0.00,0.10,4.70,-3.85,1.59,-7.96,-5.87,-6.04,4
-1.00,0.01,0.10,3.36,-1.04,2.56,-8.35,-5.60,-5.42,4
-1.00,0.01,0.10,5.00,-3.17,1.46,-8.52,-5.02,-5.20,4
-0.99,0.01,0.11,3.48,-0.98,2.44,-7.85,-6.15,-4.75,4
-0.99,0.01,0.10,5.98,-4.09,1.22,-8.29,-6.30,-4.69,4
-1.00,0.01,0.10,3.36,-2.38,2.50,-7.80,-5.79,-5.79,4
-1.00,0.02,0.11,4.21,-1.59,1.53,-8.24,-5.86,-4.64,4
-1.00,0.01,0.10,5.19,-3.11,2.26,-8.34,-5.38,-6.01,4
-0.99,0.02,0.10,4.76,-2.32,1.34,-8.09,-5.71,-5.13,4
-1.00,0.01,0.11,5.86,-3.54,1.95,-8.31,-5.35,-4.27,4
-1.00,0.01,0.11,3.36,-4.33,1.89,-8.54,-6.02,-3.98,4
-1.01,0.02,0.10,5.19,-7.93,3.72,-8.31,-5.81,-5.13,4
-0.83,0.06,0.05,-4.21,-18.74,-2.38,-8.56,-5.21,-4.53,4
-1.00,0.01,0.06,5.07,-5.55,2.87,-7.92,-4.76,-3.04,4
-1.00,0.01,0.10,5.07,-3.66,3.91,-8.31,-5.19,-5.21,4
-1.00,0.00,0.08,6.35,-8.67,0.73,-8.23,-5.38,-4.27,4
-0.98,0.02,0.07,1.95,-0.79,2.56,-8.50,-5.27,-3.54,4
-1.00,0.00,0.08,8.97,-2.99,0.55,-7.96,-5.37,-3.09,4
-1.01,0.01,0.07,4.15,-4.27,2.01,-8.45,-5.37,-3.56,4
-1.00,0.00,0.07,6.41,-0.98,0.73,-7.73,-5.14,-3.15,4
-1.02,0.01,0.06,4.09,-3.97,0.67,-8.09,-5.55,-3.83,4
-1.00,0.00,0.08,4.76,-1.83,3.05,-8.39,-5.71,-3.98,4
-0.99,0.01,0.07,6.53,-1.10,1.89,-8.40,-5.70,-3.22,4
-1.00,0.01,0.07,6.29,-1.28,1.10,-8.18,-4.99,-4.17,4
-1.00,0.02,0.06,5.62,0.55,2.69,-8.72,-5.18,-3.11,4
-1.00,0.01,0.08,6.53,-1.89,1.16,-8.37,-5.40,-3.87,4
-0.99,0.02,0.07,5.92,-3.17,2.14,-8.28,-5.47,-3.58,4
-1.00,0.01,0.06,5.62,2.81,5.19,-8.23,-4.64,-3.56,4
-0.96,-0.00,0.08,14.04,-16.66,3.91,-8.47,-5.16,-4.10,4
-1.01,-0.01,0.06,15.14,-28.69,1.46,-8.47,-4.30,-3.04,4
-1.01,-0.01,0.04,7.20,6.41,-0.67,-8.63,-4.72,-3.15,4
-1.00,-0.00,0.07,-5.68,20.14,-0.85,-8.12,-5.02,-3.86,4
-1.00,-0.00,0.02,26.25,-30.64,1.34,-8.51,-4.72,-2.55,4
-1.04,0.00,0.05,14.10,-4.58,6.29,-8.13,-5.52,-2.09,4
-0.97,0.01,0.02,9.16,11.47,5.68,-8.69,-5.22,-3.19,4
-1.01,-0.00,0.07,-3.42,19.90,1.16,-8.62,-4.52,-3.87,4
-1.01,0.01,0.10,1.89,12.63,0.92,-8.20,-5.40,-4.53,4
-0.98,-0.01,0.11,9.58,9.28,6.41,-8.56,-4.75,-4.80,4
-1.03,-0.03,0.11,8.36,0.98,4.09,-9.42,-4.21,-5.51,4
-1.01,-0.01,0.10,-5.62,-3.42,3.23,-9.38,-4.50,-5.05,4
-0.96,-0.01,0.08,-11.90,-0.92,10.13,-9.14,-3.91,-5.15,4
-1.03,-0.03,0.05,-2.14,-11.54,-21.97,-9.50,-3.21,-4.76,4
-0.98,-0.09,0.11,-16.24,-15.75,-22.03,-9.90,-4.19,-4.94,4
-1.03,0.02,0.18,25.94,-6.90,-7.39,-10.14,-4.27,-4.37,4
-0.92,-0.02,0.11,28.50,-5.07,-4.88,-10.12,-4.80,-4.98,4
-1.01,0.05,0.15,53.77,-5.07,13.67,-9.23,-5.11,-4.27,4
-0.97,0.02,0.07,58.65,5.00,7.63,-9.77,-5.44,-4.37,4
-1.04,0.02,0.11,60.18,-6.77,9.34,-9.40,-6.01,-4.39,4
-1.02,-0.04,0.15,55.79,-13.24,-16.05,-9.86,-5.51,-4.20,4
-0.98,-0.01,0.08,69.89,-9.28,0.49,-9.66,-7.10,-4.03,4
-1.04,0.00,0.15,46.33,-11.23,-0.61,-9.13,-7.09,-2.97,4
-1.01,-0.00,0.05,35.89,-4.33,-2.01,-9.23,-8.42,-4.13,4
-0.98,0.02,0.01,63.54,-8.85,-3.11,-8.63,-8.72,-4.85,4
-0.98,0.01,0.06,53.04,-14.65,-5.62,-9.50,-9.48,-4.06,4
-1.00,0.02,0.03,58.90,-14.22,-2.56,-9.00,-9.80,-4.16,4
-1.01,0.00,0.04,74.34,4.27,-0.18,-8.79,-10.78,-3.85,4
-0.94,0.01,0.01,81.79,-2.38,-5.37,-9.14,-11.79,-4.98,4
-0.99,-0.02,0.06,78.61,-7.75,-2.20,-8.87,-12.17,-4.60,4
-0.98,-0.03,0.17,64.21,23.19,-11.11,-8.56,-14.05,-4.26,4
-0.97,0.04,0.09,62.01,12.82,8.00,-8.84,-13.62,-6.14,4
-1.02,-0.01,0.04,68.48,16.42,-4.09,-9.16,-15.06,-6.76,4
-0.96,0.00,0.08,71.47,6.59,-2.20,-9.13,-14.87,-7.64,4
-1.01,-0.02,0.14,74.65,-3.85,6.04,-9.24,-15.93,-7.45,4
-1.02,0.01,0.05,71.84,8.24,11.78,-9.22,-15.73,-8.28,4
-1.00,-0.10,0.12,53.96,-2.93,4.21,-9.74,-15.82,-10.68,4
-0.99,-0.11,0.09,82.03,-6.23,9.16,-9.38,-16.22,-10.47,4
-1.01,-0.13,0.10,68.66,-4.88,2.14,-9.08,-16.00,-10.99,4
-0.98,-0.08,0.05,92.90,-3.23,-21.85,-9.56,-17.22,-11.93,4
-1.00,-0.12,0.08,95.28,-13.43,-18.55,-8.91,-17.88,-12.70,4
-1.01,-0.05,0.08,117.55,-16.97,-12.82,-8.67,-18.23,-13.44,4
-1.00,-0.07,0.04,74.22,-10.19,-4.70,-8.41,-18.14,-14.42,4
-1.00,-0.05,0.07,59.51,-10.99,-16.42,-8.40,-18.80,-13.49,4
-1.01,-0.02,0.05,44.62,-3.85,-6.10,-8.11,-19.31,-14.86,4
-1.00,-0.04,0.04,14.04,1.95,-2.26,-8.18,-19.31,-15.66,4
-1.01,-0.03,0.02,13.55,-2.38,0.73,-8.23,-19.79,-15.76,4
-1.00,-0.05,0.03,3.05,-3.23,5.80,-8.50,-19.41,-14.70,4
-0.98,-0.06,0.02,5.68,-5.74,7.87,-8.33,-19.68,-14.76,4
-1.01,-0.06,0.03,-4.39,-6.29,7.14,-8.18,-19.43,-14.75,4
-0.99,-0.05,0.02,-13.67,-5.25,4.33,-7.79,-19.47,-14.72,4
-0.99,-0.06,0.02,-21.00,-5.74,10.07,-7.92,-20.02,-14.82,4
-1.02,-0.04,0.02,-15.08,-0.18,-2.01,-7.07,-19.73,-13.46,4
-0.96,-0.08,0.02,-12.88,-1.04,0.31,-6.98,-20.39,-15.06,4
-1.00,-0.05,0.00,24.78,4.03,-16.66,-6.21,-21.53,-14.54,4
-0.81,-0.26,0.12,19.84,1.53,21.00,-5.96,-21.24,-15.09,4
-1.02,0.00,0.01,-6.77,-7.39,-42.30,-5.36,-22.29,-14.78,4
-1.02,0.02,0.01,5.00,-2.99,-7.51,-5.47,-23.55,-13.29,4
-1.00,0.02,0.02,7.14,-3.36,13.49,-5.46,-22.47,-14.31,4
-1.00,-0.01,0.01,-5.92,-2.99,8.18,-6.14,-21.67,-14.54,4
-1.01,0.00,0.02,12.76,-2.01,5.07,-6.31,-22.00,-13.94,4
-1.01,-0.03,0.01,2.32,-5.13,10.86,-6.41,-22.14,-13.59,4
-0.98,-0.03,-0.00,5.98,-0.37,2.20,-6.56,-21.52,-13.95,4
-1.02,-0.01,0.01,-9.09,0.18,3.66,-6.16,-21.37,-14.29,4
-0.99,-0.02,0.04,-3.91,2.01,8.42,-7.01,-21.20,-13.82,4
-1.02,-0.02,0.02,24.17,-4.82,10.56,-6.63,-21.48,-13.89,4
-0.98,-0.05,-0.00,-0.49,-7.08,21.00,-7.57,-20.64,-13.42,4
-0.98,-0.06,0.01,-0.79,0.73,-1.65,-7.32,-20.39,-13.46,4
-1.01,-0.05,0.03,7.08,-0.61,-1.10,-6.86,-20.81,-13.73,4
-1.01,-0.05,0.01,-0.06,-2.32,4.52,-6.73,-20.31,-13.54,4
-1.00,-0.06,0.01,1.16,-1.95,5.07,-7.08,-20.81,-14.09,4
-0.99,-0.04,0.02,2.75,-1.53,2.56,-7.41,-20.80,-13.94,4
-0.99,-0.05,0.02,5.49,-3.05,6.59,-6.84,-20.69,-14.89,4
-1.01,-0.05,0.02,11.47,-1.71,-5.25,-6.75,-21.15,-14.47,4
-1.00,-0.05,0.02,1.95,-3.36,7.57,-6.20,-21.01,-13.92,4
-0.99,-0.05,0.02,11.05,-1.77,-2.38,-6.99,-20.94,-13.68,4
-1.00,-0.05,0.02,6.53,-2.81,2.99,-7.23,-20.09,-13.93,4
-1.00,-0.06,0.02,-0.37,-4.82,11.29,-6.80,-20.45,-14.28,4
-1.01,-0.06,0.02,8.97,-2.50,-4.03,-6.67,-20.50,-13.00,4
-0.99,-0.05,0.02,7.08,-3.78,6.35,-6.60,-20.80,-13.70,4
-1.01,-0.06,0.01,9.89,-2.32,-2.26,-6.74,-20.72,-13.72,4
-1.00,-0.06,0.01,4.76,-3.17,4.94,-6.85,-20.78,-14.23,4
-0.98,-0.06,0.02,4.70,-1.46,0.06,-6.65,-20.51,-14.11,4
-1.00,-0.04,0.03,-1.16,-3.72,5.62,-6.88,-20.26,-12.98,4
-1.00,-0.06,0.01,1.65,-3.05,2.20,-6.70,-20.91,-14.40,4
-1.02,-0.06,0.02,2.87,-0.73,-1.65,-6.38,-20.96,-14.47,4
-0.99,-0.04,0.03,3.05,-3.66,4.58,-6.59,-20.96,-14.16,4
-1.00,-0.06,0.01,6.04,-2.50,2.50,-6.59,-21.11,-13.22,4
-0.99,-0.04,0.03,5.13,-2.99,4.39,-6.90,-20.79,-14.26,4
-1.00,-0.05,0.02,4.21,-2.01,2.56,-6.95,-20.89,-13.02,4
-1.01,-0.05,0.02,2.62,-3.91,3.42,-6.49,-20.61,-13.67,4
-1.00,-0.06,0.01,7.45,-1.77,0.73,-6.49,-21.19,-13.85,4
-1.00,-0.05,0.03,2.38,-4.21,7.51,-6.42,-20.50,-13.82,4
-0.99,-0.07,0.01,3.30,-1.89,2.93,-7.14,-20.50,-13.76,4
-1.02,-0.06,0.01,2.20,-1.59,-2.81,-7.10,-20.32,-12.99,4
-1.00,-0.06,0.01,5.49,-4.09,4.88,-6.88,-21.04,-13.64,4
-1.00,-0.06,0.02,1.89,-1.77,-0.06,-6.95,-20.37,-13.31,4
-1.01,-0.05,0.02,7.02,-2.87,1.04,-7.04,-20.85,-13.12,4
-1.00,-0.07,0.01,3.48,-2.32,2.01,-6.99,-21.19,-12.35,4
-1.01,-0.06,0.02,7.93,-2.14,-0.49,-7.08,-21.07,-13.17,4
-1.00,-0.06,0.01,4.33,-3.54,3.60,-6.68,-20.46,-13.26,4
-0.99,-0.06,0.02,3.60,-3.11,4.33,-6.26,-20.70,-14.05,4
-1.00,-0.06,0.02,5.62,-2.26,0.79,-6.70,-20.39,-13.50,4
-0.99,-0.06,0.03,2.20,-3.60,6.16,-6.90,-20.80,-13.65,4
-1.00,-0.06,0.01,6.41,-1.95,-1.28,-5.88,-20.75,-12.93,4
-1.00,-0.05,0.03,1.22,-3.91,6.65,-6.58,-20.29,-13.65,4
-0.99,-0.07,0.01,7.69,-2.01,-2.08,-6.57,-20.80,-13.88,4
-1.01,-0.05,0.03,1.04,-3.91,6.77,-6.79,-20.85,-13.65,4
-0.99,-0.07,0.01,4.15,-2.93,3.36,-6.63,-20.03,-13.67,4
-1.01,-0.06,0.01,5.37,-2.69,1.65,-6.63,-20.67,-12.73,4
-1.00,-0.06,0.02,3.66,-2.26,2.20,-6.69,-20.52,-14.37,4
-1.00,-0.06,0.01,4.58,-3.17,0.06,-6.43,-20.97,-14.07,4
-1.00,-0.06,0.02,3.23,-2.26,3.42,-6.47,-21.17,-14.38,4
-1.00,-0.05,0.02,5.49,-1.71,-1.10,-6.65,-20.57,-13.65,4
-1.00,-0.06,0.01,4.82,-2.44,4.03,-6.63,-20.73,-14.27,4
-1.00,-0.06,0.02,3.54,-3.05,1.71,-6.77,-20.46,-14.81,4
-1.00,-0.07,0.01,5.49,-2.44,2.69,-6.48,-20.53,-12.99,4
-1.01,-0.06,0.02,2.44,-2.93,2.32,-7.06,-20.48,-14.75,4
-1.00,-0.06,0.02,3.97,-2.01,0.18,-6.86,-20.87,-13.79,4
-1.01,-0.06,0.02,4.15,-2.44,1.46,-6.76,-19.96,-13.87,4
-1.00,-0.06,0.01,7.75,-2.75,1.65,-6.40,-20.58,-13.95,4
-1.00,-0.06,0.02,0.92,-3.05,3.05,-6.77,-20.65,-13.82,4
-1.00,-0.06,0.01,6.90,-2.14,-0.67,-6.54,-19.90,-14.77,4
-1.00,-0.06,0.01,1.40,-3.42,7.02,-6.63,-20.50,-13.84,4
-1.00,-0.07,0.01,7.51,-2.56,0.24,-6.16,-20.46,-12.87,4
-1.00,-0.06,0.01,3.85,-3.36,2.32,-6.40,-20.81,-13.16,4
-0.99,-0.08,0.01,4.27,-2.56,4.58,-6.38,-20.56,-13.02,4
-1.00,-0.07,0.02,4.64,-2.38,2.32,-6.81,-20.72,-13.37,4
-1.00,-0.06,0.01,6.04,-2.87,1.22,-6.62,-20.06,-13.18,4
-1.00,-0.06,0.01,4.33,-3.17,2.56,-6.57,-20.37,-13.65,4
-1.00,-0.06,0.02,4.70,-2.56,3.42,-6.53,-20.42,-13.84,4
-1.00,-0.07,0.01,3.66,-2.93,3.05,-6.40,-20.53,-14.11,4
-1.00,-0.07,0.01,6.47,-2.38,1.46,-6.59,-20.83,-13.43,4
-1.01,-0.06,0.01,4.82,-1.83,-0.49,-6.60,-20.07,-12.88,4
-0.99,-0.06,0.01,3.85,-4.09,5.49,-6.49,-20.61,-12.41,4
-1.01,-0.06,0.02,5.19,-0.61,-0.73,-6.49,-20.58,-13.11,4
-1.00,-0.06,0.02,4.21,-4.52,2.32,-6.95,-20.01,-13.16,4
-0.99,-0.07,0.01,6.41,-1.28,1.65,-6.68,-20.34,-12.77,4
-1.01,-0.06,0.02,3.48,-3.05,4.09,-6.40,-20.46,-12.41,4
-1.00,-0.07,0.00,6.47,-2.87,2.20,-6.56,-20.50,-12.96,4
-1.01,-0.06,0.02,3.30,-2.44,1.10,-6.40,-20.29,-13.78,4
-0.99,-0.06,0.01,5.25,-2.99,3.36,-6.18,-20.64,-13.83,4
-1.00,-0.07,0.01,4.39,-2.14,0.06,-6.68,-20.73,-12.48,4
-1.00,-0.06,0.02,7.63,-2.08,-0.37,-6.68,-20.00,-13.38,4
-1.00,-0.06,0.01,3.85,-3.78,3.60,-6.51,-20.80,-13.51,4
-1.01,-0.07,0.01,5.55,-2.14,2.08,-6.37,-20.65,-13.65,4
-1.00,-0.06,0.01,4.88,-3.36,0.18,-6.63,-20.79,-14.20,4
-1.00,-0.07,0.01,3.78,-3.60,6.35,-6.62,-20.72,-12.83,4
-1.00,-0.05,0.02,5.80,-2.14,-2.56,-6.91,-20.59,-13.29,4
-1.00,-0.06,0.01,3.48,-3.48,6.10,-6.67,-20.39,-13.16,4
-1.00,-0.06,0.01,8.00,-2.62,-1.10,-6.75,-20.09,-13.73,4
-1.00,-0.07,0.01,5.92,-3.17,1.65,-6.74,-20.30,-12.84,4
-1.00,-0.06,0.02,3.17,-2.01,1.34,-6.41,-20.25,-13.84,4
-0.99,-0.07,0.01,6.23,-2.56,2.87,-6.41,-20.30,-13.39,4
-1.00,-0.06,0.01,3.91,-2.99,2.87,-6.60,-20.58,-13.49,4
-1.00,-0.07,0.01,4.09,-2.56,2.32,-6.99,-20.84,-12.06,4
-1.00,-0.06,0.01,4.33,-2.50,-0.18,-6.70,-20.72,-14.16,4
-0.99,-0.07,0.02,1.22,-3.23,6.23,-6.51,-20.30,-13.49,4
-1.01,-0.06,0.01,6.04,-1.04,-1.71,-6.86,-20.65,-14.21,4
-1.00,-0.05,0.02,1.83,-4.52,5.55,-6.84,-20.17,-13.44,4
-1.01,-0.07,0.00,4.88,-2.56,1.16,-7.36,-20.47,-13.82,4
-1.01,-0.07,0.01,-0.49,-5.37,8.24,-7.45,-19.40,-13.00,4
-1.01,-0.08,0.00,6.29,-3.17,0.00,-7.48,-19.34,-12.85,4
-1.00,-0.07,0.01,3.97,-1.83,0.00,-7.21,-19.97,-13.28,4
-0.99,-0.07,0.01,4.46,-3.48,3.91,-6.60,-19.85,-12.83,4
-1.01,-0.07,0.01,4.76,-2.75,0.85,-7.15,-19.63,-12.49,4
-1.00,-0.06,0.01,7.32,-2.50,0.61,-7.32,-20.13,-12.99,4
-1.01,-0.06,0.01,5.13,-3.42,2.81,-7.04,-20.28,-12.87,4
-0.99,-0.09,-0.00,5.37,-3.97,7.02,-6.97,-19.62,-13.72,4
-1.01,-0.07,0.02,6.90,1.77,-4.52,-7.32,-19.79,-13.76,4
-1.00,-0.06,0.02,6.23,-1.95,-2.75,-6.36,-20.54,-13.99,4
-0.99,-0.06,0.01,7.87,-3.11,0.55,-7.21,-19.81,-13.42,4
-1.01,-0.06,0.01,5.80,-1.77,-1.04,-6.46,-20.30,-13.78,4
-1.01,-0.08,0.00,60.49,-10.31,10.86,-7.52,-20.20,-14.38,4
-0.99,-0.07,-0.01,21.12,-5.80,3.60,-7.68,-19.85,-14.22,4
-0.99,-0.07,-0.01,-3.72,-1.65,0.92,-7.51,-19.68,-13.43,4
-1.01,-0.07,0.01,11.47,-2.08,3.91,-7.67,-20.00,-13.99,4
-1.00,-0.07,0.00,4.58,-1.53,0.06,-7.31,-19.79,-13.92,4
-1.00,-0.06,0.02,4.76,-1.89,2.75,-7.15,-19.54,-13.37,4
-1.00,-0.08,-0.01,6.77,-0.92,-1.34,-7.35,-19.59,-13.77,4
-0.99,-0.06,0.00,1.71,0.12,0.92,-7.63,-20.51,-15.03,4
-1.00,-0.06,0.02,8.36,0.37,5.98,-7.58,-19.89,-13.82,4
-1.01,-0.08,0.01,7.39,0.24,-6.59,-7.28,-19.51,-14.48,4
-1.01,-0.04,0.02,13.67,-2.87,-6.41,-7.19,-21.01,-14.06,4
-0.99,-0.05,0.02,0.18,-4.82,7.81,-6.93,-20.26,-13.33,4
-1.02,-0.05,0.01,23.74,-2.08,-6.35,-6.80,-20.72,-14.79,4
-1.00,-0.05,0.00,15.14,-6.04,1.22,-7.34,-20.50,-14.55,4
-0.98,-0.03,0.01,5.62,1.34,-2.50,-7.24,-20.67,-14.32,4
-1.09,-0.02,0.01,10.31,-1.10,3.78,-7.12,-20.56,-14.54,4
-1.01,-0.03,0.01,8.30,-2.32,4.88,-7.12,-20.83,-15.22,4
-0.99,-0.04,0.02,3.72,-0.98,12.08,-7.15,-20.32,-14.79,4
-1.01,-0.07,0.01,2.99,2.62,15.63,-7.24,-19.81,-14.37,4
-0.99,-0.08,0.02,6.23,7.26,22.22,-7.24,-18.74,-13.56,4
-1.00,-0.11,0.03,18.86,11.17,11.66,-7.97,-19.01,-15.83,4
-0.99,-0.10,0.04,13.92,-2.38,7.81,-8.00,-19.18,-15.93,4
-0.97,-0.11,0.04,23.25,1.83,2.38,-8.24,-18.73,-16.16,4
-1.00,-0.10,0.06,18.92,0.31,-4.64,-8.15,-17.70,-16.25,4
-0.98,-0.10,0.03,24.96,-3.60,-2.20,-8.70,-17.44,-16.86,4
-1.01,-0.11,0.04,36.99,-1.77,-4.82,-9.13,-18.52,-16.60,4
-0.97,-0.09,0.03,29.05,-6.65,-2.14,-8.96,-17.37,-17.03,4
-1.02,-0.08,0.03,40.16,-5.62,2.44,-9.17,-17.79,-16.85,4
-0.80,0.13,0.17,57.07,19.17,-11.11,-9.57,-17.37,-18.87,4
-1.11,-0.11,0.09,64.58,-15.63,-13.85,-8.08,-18.12,-18.62,4
-1.05,-0.06,-0.07,40.22,3.36,-6.77,-8.36,-17.99,-18.30,4
-1.09,-0.12,0.00,56.52,-3.60,-5.31,-8.67,-18.03,-18.85,4
-1.01,-0.10,-0.02,37.35,4.88,-3.72,-8.28,-17.74,-19.84,4
-1.03,-0.12,0.00,51.70,-10.19,-1.34,-8.45,-17.21,-19.79,4
-1.02,-0.14,0.15,61.65,-2.14,-4.27,-8.57,-17.63,-20.62,4
-0.96,-0.06,0.07,35.16,14.40,-7.32,-8.48,-17.47,-20.54,4
-0.96,-0.30,-0.11,11.84,17.70,-5.98,-8.48,-16.98,-21.94,4
-1.02,-0.07,-0.02,100.89,-42.85,44.62,-8.81,-15.50,-21.80,4
-0.92,-0.06,0.00,63.42,-14.95,16.85,-9.45,-14.62,-21.36,4
-0.97,-0.05,0.02,-4.09,22.77,-25.15,-8.76,-15.03,-21.63,4
-1.10,-0.14,-0.13,120.30,-56.03,3.97,-8.97,-14.60,-21.25,4
-1.06,-0.11,-0.02,119.20,-45.23,20.32,-9.51,-13.39,-21.07,4
-0.94,-0.04,-0.08,62.38,2.26,6.59,-9.83,-12.90,-21.87,4
-1.01,-0.11,-0.12,138.31,-37.41,-8.42,-9.80,-12.23,-21.67,4
-1.00,-0.15,-0.20,118.23,-18.80,-16.78,-10.01,-11.36,-21.83,4
-1.00,-0.03,-0.17,86.24,-6.23,-7.14,-10.47,-11.06,-21.34,4
-0.87,-0.01,-0.18,32.96,33.75,-1.83,-9.52,-11.15,-22.01,4
-1.10,-0.06,-0.22,46.81,22.16,6.53,-9.14,-10.31,-23.77,4
-0.92,0.11,-0.09,39.31,12.02,13.12,-9.88,-9.61,-23.54,4
-0.99,0.01,-0.19,20.87,6.59,-12.94,-9.14,-10.10,-24.85,4
-0.95,0.03,-0.29,58.41,-31.43,-10.01,-8.89,-9.73,-24.26,4
-0.99,0.03,-0.00,17.64,-24.90,6.90,-9.68,-9.55,-24.48,4
-1.10,-0.02,-0.08,-6.16,3.91,-2.38,-9.62,-9.85,-24.07,4
-1.01,0.01,-0.13,-21.00,9.34,11.29,-9.38,-9.79,-23.63,4
-0.97,0.01,-0.11,7.51,5.43,3.11,-9.92,-9.75,-23.80,4
-0.96,0.01,-0.07,-5.37,24.17,1.16,-9.41,-9.44,-24.28,4
-0.99,-0.02,-0.08,3.48,-4.09,11.78,-9.73,-9.90,-24.62,4
-1.01,-0.01,-0.12,-0.79,-8.79,5.86,-9.12,-9.36,-24.02,4
-1.02,-0.05,-0.09,2.99,-0.73,7.20,-9.29,-9.67,-25.65,4
-1.02,-0.00,-0.12,-6.65,-3.78,6.29,-8.90,-9.41,-24.30,4
-1.01,-0.04,-0.12,-13.18,2.26,-3.91,-9.42,-9.48,-24.88,4
-0.98,-0.04,-0.08,2.26,-3.23,-3.42,-9.25,-9.72,-24.63,4
-0.96,-0.03,-0.10,-1.59,2.87,-5.13,-9.34,-9.77,-24.33,4
-1.01,-0.06,-0.10,-1.40,-1.22,0.67,-9.14,-10.21,-25.04,4
-1.02,-0.03,-0.13,-4.94,0.92,7.14,-9.64,-10.40,-24.54,4
-1.01,-0.02,-0.10,-1.22,0.61,7.14,-9.07,-9.95,-24.16,4
-1.00,-0.01,-0.10,2.08,0.43,5.13,-9.64,-10.11,-24.29,4
-0.98,-0.01,-0.10,5.98,-1.71,3.48,-9.50,-10.16,-25.21,4
-0.99,-0.02,-0.08,3.60,-2.32,2.01,-9.39,-10.05,-24.43,4
-1.00,-0.03,-0.10,0.06,-4.15,4.76,-10.00,-9.18,-24.84,4
-0.99,-0.03,-0.09,0.49,-2.20,3.11,-9.66,-10.00,-24.46,4
-1.01,-0.04,-0.08,3.36,-4.82,1.28,-9.53,-9.90,-24.73,4
-1.00,-0.02,-0.10,2.26,-2.20,2.32,-9.42,-9.44,-25.04,4
-1.00,-0.04,-0.10,3.48,-2.08,0.18,-9.07,-9.86,-24.80,4
-0.99,-0.03,-0.08,4.15,-3.11,2.01,-9.23,-10.52,-23.88,4
-1.00,-0.03,-0.09,5.00,-2.20,0.67,-9.51,-9.92,-24.52,4
-0.99,-0.03,-0.09,4.94,-1.34,1.16,-9.38,-9.53,-25.20,4
-0.99,-0.04,-0.08,5.68,-4.09,1.65,-9.06,-10.33,-24.62,4
-1.00,-0.03,-0.09,5.13,-2.01,2.08,-9.29,-10.42,-24.34,4
-1.00,-0.03,-0.10,4.76,-2.44,1.40,-9.13,-9.50,-24.77,4
-1.00,-0.04,-0.09,3.85,-2.32,2.01,-9.16,-10.02,-25.29,4
-0.99,-0.03,-0.09,5.00,-1.28,1.71,-9.08,-9.75,-24.76,4
-0.99,-0.03,-0.08,5.07,-3.30,1.89,-9.48,-9.84,-24.96,4
-1.01,-0.04,-0.10,3.48,0.43,0.43,-9.68,-9.89,-25.31,4
-1.00,-0.04,-0.08,3.66,-1.22,1.77,-9.27,-9.75,-24.77,4
-1.00,-0.04,-0.08,4.64,-2.87,1.59,-9.06,-10.40,-24.74,4
-0.99,-0.03,-0.07,3.42,-2.81,2.50,-8.76,-9.94,-24.06,4
-1.00,-0.04,-0.09,4.21,-1.95,0.61,-8.80,-10.35,-24.34,4
-1.00,-0.04,-0.08,4.58,-1.95,2.20,-8.53,-10.50,-25.67,4
-1.00,-0.03,-0.09,4.21,-0.98,1.65,-9.02,-10.51,-24.10,4
-1.00,-0.04,-0.07,3.48,-1.71,2.69,-9.36,-10.13,-23.66,4
-0.99,-0.04,-0.08,4.15,0.06,0.43,-8.85,-10.58,-24.80,4
-1.01,-0.06,-0.08,3.05,-2.87,1.77,-8.86,-10.33,-25.20,4
-1.00,-0.03,-0.08,5.43,-2.32,1.04,-9.06,-10.36,-25.27,4
-1.00,-0.03,-0.08,4.46,-3.60,1.65,-8.81,-10.33,-23.79,4
-1.01,-0.04,-0.07,3.91,-4.21,2.32,-9.34,-9.91,-25.44,4
-0.99,-0.03,-0.08,5.31,-1.59,0.85,-9.02,-10.29,-25.51,4
-0.99,-0.03,-0.08,5.92,-3.97,1.10,-9.39,-9.75,-24.94,4
-1.00,-0.03,-0.08,5.00,-3.60,2.50,-8.85,-9.64,-25.13,4
-1.00,-0.04,-0.08,4.64,-4.09,1.53,-8.90,-10.03,-24.68,4
-0.99,-0.03,-0.09,4.27,-1.83,1.95,-9.03,-9.78,-25.21,4
-1.00,-0.03,-0.08,3.05,-2.44,1.34,-8.84,-10.19,-25.99,4
-1.00,-0.04,-0.08,5.19,-3.30,1.53,-9.29,-10.34,-25.21,4
-0.99,-0.03,-0.09,3.78,-2.69,1.16,-9.25,-9.66,-25.46,4
-1.01,-0.04,-0.09,4.70,-2.01,0.43,-9.17,-9.99,-25.78,4
-0.99,-0.03,-0.08,5.19,-2.50,1.46,-8.83,-10.39,-24.95,4
-1.01,-0.03,-0.09,4.03,-2.44,1.40,-9.40,-10.34,-25.31,4
-1.00,-0.04,-0.08,4.46,-1.10,1.16,-9.17,-9.56,-25.28,4
-1.00,-0.03,-0.08,4.88,-3.23,1.16,-9.18,-10.08,-24.82,4
-1.00,-0.04,-0.08,4.33,-2.56,1.65,-8.69,-10.21,-24.38,4
-1.00,-0.04,-0.08,5.00,-3.54,1.53,-9.51,-10.19,-24.30,4
-1.00,-0.03,-0.08,4.09,-0.92,1.95,-9.14,-10.36,-24.87,4
-0.99,-0.03,-0.10,4.88,-1.22,0.67,-8.83,-10.39,-25.42,4
-1.01,-0.03,-0.08,5.19,-2.93,1.46,-8.65,-10.11,-25.43,4
-1.00,-0.04,-0.07,4.46,-1.65,1.53,-8.96,-9.51,-24.19,4
-1.00,-0.03,-0.09,4.52,-2.87,1.95,-9.40,-9.99,-25.21,4
-1.00,-0.04,-0.08,3.66,-2.01,1.53,-9.28,-10.50,-24.44,4
-1.00,-0.03,-0.09,5.07,-1.77,0.92,-8.62,-10.23,-25.49,4
-0.97,-0.04,-0.07,4.15,-2.87,1.53,-9.13,-9.57,-25.45,4
-0.99,-0.03,-0.09,4.70,-1.95,1.46,-8.67,-10.14,-25.21,4
-1.01,-0.04,-0.08,4.46,-2.32,1.04,-8.72,-10.49,-24.37,4
-0.99,-0.03,-0.08,4.52,-1.77,1.16,-9.27,-10.42,-25.93,4
-1.01,-0.03,-0.08,3.36,-3.17,1.10,-8.94,-9.79,-25.44,4
-1.00,-0.03,-0.08,4.39,-2.14,0.67,-9.05,-9.68,-24.96,4
-1.00,-0.04,-0.08,2.93,-3.05,1.34,-9.12,-10.10,-25.28,4
-0.99,-0.03,-0.08,3.23,-0.67,1.22,-8.91,-10.19,-25.78,4
-1.01,-0.03,-0.08,4.09,-2.44,1.34,-9.17,-10.00,-25.79,4
-0.99,-0.03,-0.07,2.75,-1.89,0.61,-8.91,-10.68,-25.74,4
-1.01,-0.03,-0.08,3.48,-1.28,0.98,-9.01,-10.39,-24.88,4
-1.00,-0.02,-0.08,2.62,-2.08,1.95,-8.53,-10.24,-25.59,4
-1.00,-0.03,-0.07,4.33,-3.11,1.10,-8.89,-10.19,-26.05,4
-0.99,-0.02,-0.07,3.85,-1.65,2.14,-8.98,-10.51,-24.56,4
-1.01,-0.03,-0.07,4.70,-3.66,1.65,-9.11,-10.31,-24.98,4
-0.99,-0.02,-0.07,4.82,-2.38,1.71,-8.68,-9.91,-25.50,4
-1.00,-0.03,-0.08,5.19,-3.05,1.04,-8.67,-10.10,-25.51,4
-1.00,-0.03,-0.07,4.21,-1.16,1.59,-8.97,-10.18,-24.38,4
-1.00,-0.03,-0.08,6.53,-3.36,1.10,-8.63,-9.80,-25.95,4
-0.99,-0.02,-0.08,5.00,-1.40,1.40,-9.03,-10.24,-26.81,4
-1.00,-0.04,-0.08,4.58,-2.99,1.28,-9.03,-10.47,-25.32,4
-0.99,-0.03,-0.06,4.33,-3.48,2.20,-8.83,-10.02,-25.72,4
-1.01,-0.03,-0.08,4.94,-3.30,1.46,-8.96,-10.29,-24.30,4
-0.99,-0.02,-0.08,4.94,-2.26,1.89,-9.40,-10.34,-25.51,4
-1.00,-0.03,-0.08,5.07,-3.66,1.83,-9.11,-9.95,-24.93,4
-0.99,-0.02,-0.07,4.09,-2.08,2.32,-9.14,-10.30,-25.63,4
-1.00,-0.03,-0.08,4.58,-3.17,1.28,-9.17,-9.64,-25.16,4
-0.99,-0.02,-0.08,2.69,-1.22,1.46,-8.97,-10.10,-25.87,4
-1.00,-0.03,-0.07,4.52,-3.05,1.65,-8.76,-10.35,-25.24,4
-1.00,-0.02,-0.07,4.21,-2.26,1.46,-9.41,-10.36,-24.98,4
-1.00,-0.03,-0.08,4.39,-1.10,-0.61,-8.40,-10.24,-25.18,4
-1.00,-0.03,-0.08,1.40,-1.59,1.22,-8.42,-10.57,-24.57,4
-1.00,-0.02,-0.07,2.08,1.04,-0.73,-9.73,-10.17,-26.10,4
-1.01,-0.02,-0.03,0.43,0.12,-0.06,-9.01,-10.12,-25.95,4
-1.00,-0.02,-0.07,1.46,-0.18,0.00,-9.00,-10.38,-25.92,4
-1.00,-0.02,-0.05,-0.37,-0.06,-0.85,-9.00,-10.56,-25.02,4
-0.99,-0.01,-0.06,0.79,0.31,-0.92,-9.09,-11.08,-26.81,4
-1.01,-0.02,-0.05,-0.06,-1.65,-0.31,-8.45,-11.06,-25.48,4
-1.00,-0.02,-0.05,-3.11,-2.32,1.89,-9.30,-10.96,-25.00,4
-1.00,-0.01,-0.04,-5.62,-3.91,1.59,-9.02,-11.29,-26.42,4
-1.01,-0.02,-0.05,-0.85,-0.79,0.00,-8.78,-11.32,-25.04,4
-0.99,-0.01,-0.06,-3.42,-2.32,2.01,-8.58,-11.50,-25.88,4
-1.00,-0.01,-0.06,-9.58,-4.94,1.46,-9.08,-12.06,-25.44,4
-1.00,-0.01,-0.07,-16.36,-8.36,3.72,-8.90,-11.60,-24.80,4
-1.02,-0.03,-0.07,-11.78,-1.71,-0.61,-9.20,-11.65,-25.18,4
-0.99,-0.02,-0.06,-16.85,-5.13,4.58,-8.95,-11.94,-25.46,4
-1.00,-0.01,-0.04,-15.87,-6.10,0.43,-8.64,-13.09,-24.04,4
-1.00,-0.03,-0.08,-13.12,-1.10,1.83,-9.11,-12.65,-25.06,4
-1.00,-0.03,-0.08,-24.17,-4.64,7.02,-9.25,-12.84,-24.32,4
-1.00,-0.03,-0.05,-18.37,-1.77,2.08,-8.29,-13.10,-23.72,4
-1.00,-0.03,-0.08,-23.44,-1.34,3.72,-9.06,-13.31,-24.13,4
-0.99,-0.05,-0.08,-25.51,-5.13,4.33,-9.22,-13.15,-24.24,4
-1.02,-0.04,-0.05,-26.25,0.06,3.17,-8.85,-14.03,-23.85,4
-0.99,-0.06,-0.08,-31.56,0.98,3.78,-9.29,-14.11,-23.58,4
-0.99,-0.04,-0.04,-38.33,1.59,6.77,-9.47,-14.29,-23.32,4
-1.02,-0.09,-0.04,-66.41,10.25,4.52,-8.97,-15.03,-23.71,4
-1.00,-0.07,-0.03,-70.68,11.05,10.74,-8.64,-15.39,-23.14,4
-0.99,-0.04,-0.01,-61.65,9.34,9.34,-8.94,-15.11,-22.20,4
-1.00,-0.08,0.01,-62.56,12.39,12.27,-8.81,-16.43,-22.61,4
-0.98,-0.08,0.02,-67.87,10.74,11.96,-8.69,-16.65,-23.56,4
-0.98,-0.19,0.23,-142.33,42.18,28.20,-8.30,-16.98,-21.73,4
-1.02,0.04,-0.59,-135.07,88.01,32.78,-8.20,-17.63,-21.74,4
-0.99,-0.07,0.19,-3.91,-9.40,2.08,-8.08,-17.14,-21.74,4
-0.98,-0.12,0.15,-18.55,-6.53,3.30,-8.20,-17.07,-21.48,4
-0.98,-0.08,0.17,-42.24,-6.16,10.07,-8.04,-17.04,-20.57,4
-0.97,-0.00,0.16,-86.12,-5.25,5.74,-8.28,-17.59,-19.78,4
-0.98,-0.05,0.14,-97.23,-9.09,1.89,-8.89,-18.99,-18.76,4
