ax,ay,az,gx,gy,gz,mx,my,mz,label
-0.05,0.03,-1.01,4.03,-2.50,1.46,21.62,-21.01,11.34,2
-0.05,0.03,-1.01,3.66,-2.75,1.65,21.37,-21.86,12.06,2
-0.05,0.03,-1.01,3.91,-2.56,1.34,21.75,-21.68,10.56,2
-0.05,0.03,-1.01,3.60,-2.81,1.46,21.61,-22.02,10.93,2
-0.05,0.03,-1.01,3.48,-2.75,1.77,21.66,-21.57,11.35,2
-0.05,0.03,-1.01,3.91,-3.11,1.28,21.31,-22.11,12.07,2
-0.05,0.03,-1.01,4.82,-2.81,1.10,22.01,-22.11,11.55,2
-0.05,0.03,-1.01,3.91,-2.50,1.46,21.87,-21.97,11.54,2
-0.05,0.03,-1.01,3.66,-3.05,1.28,21.72,-21.56,12.07,2
-0.05,0.03,-1.01,4.64,-2.87,1.46,21.53,-21.86,11.08,2
-0.05,0.03,-1.01,4.21,-2.69,1.59,21.89,-22.09,11.63,2
-0.05,0.03,-1.01,4.70,-2.50,1.28,22.28,-21.74,11.02,2
-0.05,0.03,-1.01,4.33,-2.81,1.10,21.89,-22.24,11.47,2
-0.05,0.03,-1.01,3.91,-2.93,1.40,21.84,-21.81,10.77,2
-0.05,0.03,-1.01,4.15,-2.81,1.46,21.55,-21.83,11.35,2
-0.05,0.03,-1.01,3.91,-2.87,1.46,22.05,-21.75,11.21,2
-0.05,0.03,-1.01,4.09,-2.87,1.34,21.69,-22.24,11.06,2
-0.05,0.03,-1.01,4.27,-2.69,1.34,22.16,-21.79,11.50,2
-0.05,0.03,-1.01,4.58,-2.69,1.28,21.90,-22.46,10.75,2
-0.05,0.03,-1.01,4.76,-2.81,1.34,21.64,-21.70,11.56,2
-0.05,0.03,-1.01,3.91,-2.81,1.65,21.62,-22.16,12.34,2
-0.05,0.03,-1.01,5.68,-2.81,0.85,21.83,-21.94,11.49,2
-0.05,0.03,-1.01,3.85,-2.50,1.53,21.73,-22.23,11.07,2
-0.05,0.03,-1.01,3.36,-2.81,1.53,22.12,-22.38,12.05,2
-0.05,0.03,-1.01,4.15,-2.81,1.46,21.80,-21.95,12.01,2
-0.05,0.03,-1.01,4.33,-2.62,1.34,21.86,-22.19,12.00,2
-0.05,0.03,-1.01,5.00,-2.56,1.10,21.90,-21.57,11.96,2
-0.05,0.03,-1.01,4.64,-2.87,1.16,21.58,-22.20,10.80,2
-0.05,0.03,-1.01,3.54,-2.50,1.71,22.42,-22.05,11.30,2
-0.05,0.03,-1.01,5.43,-3.05,1.04,21.78,-22.19,11.43,2
-0.05,0.03,-1.02,4.82,-1.89,1.40,21.62,-21.40,11.80,2
-0.05,0.03,-1.01,3.60,-2.56,1.34,22.16,-21.94,11.43,2
-0.05,0.04,-1.00,2.75,-3.05,1.46,21.69,-21.96,11.61,2
-0.04,0.02,-1.02,1.46,-2.50,1.34,22.28,-21.34,11.76,2
-0.05,0.04,-1.01,1.89,-2.44,1.10,21.96,-21.58,11.99,2
-0.05,0.02,-1.01,2.69,-2.93,1.16,22.23,-22.13,11.34,2
-0.05,0.02,-1.01,0.37,-2.81,2.32,22.05,-21.42,11.34,2
-0.05,0.01,-1.01,3.05,-3.05,1.46,21.85,-21.46,11.49,2
-0.05,0.02,-1.01,3.97,-2.44,1.34,22.46,-21.33,11.32,2
-0.05,0.01,-1.01,4.46,-2.44,0.73,21.69,-21.78,11.79,2
-0.05,0.01,-1.01,2.75,-2.56,0.73,21.44,-21.04,11.32,2
-0.05,0.02,-1.01,-1.16,-2.69,2.20,22.09,-21.73,12.18,2
-0.05,0.01,-1.01,4.46,-2.75,1.10,21.66,-21.23,11.52,2
-0.05,0.01,-1.01,5.98,-1.83,1.04,21.79,-21.63,11.16,2
-0.05,0.01,-1.01,4.39,-2.26,1.22,22.11,-21.07,11.94,2
-0.05,0.01,-1.01,4.94,-2.62,1.40,22.07,-21.11,11.47,2
-0.05,0.01,-1.01,3.11,-2.99,1.59,22.30,-20.86,11.24,2
-0.05,0.01,-1.01,3.05,-2.87,1.71,22.03,-20.95,11.49,2
-0.05,0.01,-1.01,4.09,-2.75,1.16,21.77,-20.64,11.76,2
-0.05,0.01,-1.01,3.91,-2.44,2.56,22.25,-21.11,11.68,2
-0.05,0.01,-1.01,4.15,-6.47,10.62,22.29,-21.59,11.88,2
-0.04,0.00,-1.02,1.77,-5.25,0.98,22.61,-21.62,11.49,2
-0.04,0.00,-1.01,-1.65,-4.39,3.91,22.30,-21.40,10.95,2
-0.04,-0.01,-1.01,0.79,-2.56,1.83,21.80,-21.19,12.18,2
-0.04,-0.01,-1.03,-5.49,-4.39,-2.62,21.69,-21.17,11.71,2
-0.04,-0.04,-0.99,-16.36,-5.86,-2.99,21.67,-19.13,11.57,2
-0.03,-0.05,-1.00,-29.30,-6.23,-3.48,21.87,-18.76,12.60,2
-0.03,-0.08,-1.04,-7.57,-3.11,-0.37,21.50,-18.25,12.66,2
-0.04,-0.10,-1.01,-17.21,-2.75,1.34,21.87,-18.21,13.53,2
-0.03,-0.11,-1.01,-5.31,-2.44,2.62,21.83,-17.80,12.92,2
-0.03,-0.14,-1.00,-9.64,-2.75,3.36,21.91,-17.96,13.09,2
-0.03,-0.15,-1.01,-7.75,-1.34,5.19,21.87,-17.18,13.28,2
-0.02,-0.17,-0.99,-21.73,-2.75,6.10,21.70,-15.93,13.49,2
-0.03,-0.18,-0.99,-10.38,-2.99,3.05,22.00,-16.03,13.13,2
-0.03,-0.21,-0.99,0.73,-3.85,-0.18,22.25,-15.77,13.84,2
-0.03,-0.22,-0.96,-25.45,-3.78,4.15,21.89,-15.01,14.32,2
-0.03,-0.24,-0.98,-18.43,-4.58,2.20,22.28,-14.75,14.05,2
-0.02,-0.26,-0.97,-6.84,-2.93,2.69,21.86,-14.34,14.37,2
-0.02,-0.27,-0.97,-14.22,-4.94,2.44,22.40,-14.93,13.76,2
-0.02,-0.29,-0.97,-14.89,-3.30,3.91,22.68,-14.12,14.05,2
-0.02,-0.32,-0.95,-49.62,-3.54,7.69,22.73,-13.56,14.21,2
-0.03,-0.36,-0.96,-5.49,-1.95,3.72,23.18,-13.23,14.47,2
-0.01,-0.36,-0.94,-8.48,-2.14,3.17,23.00,-12.78,14.53,2
-0.02,-0.37,-0.94,-1.65,-2.38,1.77,22.84,-12.26,14.82,2
-0.02,-0.39,-0.96,-13.55,-1.40,4.64,23.01,-11.88,13.70,2
-0.01,-0.41,-0.89,-26.25,-1.53,7.02,23.68,-11.15,14.06,2
-0.03,-0.43,-0.94,13.85,0.12,1.65,23.02,-11.30,14.21,2
-0.01,-0.43,-0.94,0.31,-1.59,3.11,23.49,-11.16,14.69,2
-0.02,-0.43,-0.93,9.28,-2.38,1.53,23.27,-11.56,14.93,2
-0.02,-0.42,-0.92,2.81,-1.83,2.14,23.01,-11.38,15.50,2
-0.02,-0.42,-0.92,3.30,-2.62,1.77,23.22,-10.85,15.37,2
-0.02,-0.41,-0.91,5.19,-3.36,1.16,23.18,-10.96,14.73,2
-0.02,-0.41,-0.92,10.68,-2.62,0.43,23.47,-11.36,14.29,2
-0.02,-0.41,-0.93,6.65,-2.01,1.71,22.85,-11.35,14.51,2
-0.02,-0.41,-0.92,6.84,-2.44,1.34,23.40,-11.01,14.92,2
-0.02,-0.41,-0.92,2.32,-2.38,2.44,22.80,-11.45,14.26,2
-0.02,-0.41,-0.92,3.36,-2.69,1.83,22.51,-11.45,14.60,2
-0.02,-0.41,-0.93,4.76,-2.14,1.83,23.33,-11.18,13.87,2
-0.02,-0.41,-0.92,4.33,-2.81,1.53,22.92,-11.16,13.95,2
-0.02,-0.41,-0.93,7.57,-2.62,1.16,22.66,-10.94,13.78,2
-0.02,-0.41,-0.93,8.00,-3.30,0.49,23.17,-11.43,15.23,2
-0.02,-0.41,-0.93,6.10,-3.42,1.10,23.10,-10.73,15.26,2
-0.02,-0.41,-0.92,4.88,-1.95,1.77,23.39,-10.85,14.32,2
-0.02,-0.41,-0.93,5.00,-2.62,1.53,22.56,-11.05,14.71,2
-0.02,-0.41,-0.93,2.62,-2.75,1.65,22.67,-11.29,14.71,2
-0.02,-0.41,-0.93,3.23,-2.93,1.46,22.83,-11.19,13.98,2
-0.02,-0.41,-0.92,2.87,-3.05,1.53,23.24,-11.08,14.17,2
-0.02,-0.41,-0.92,7.45,-2.56,0.79,23.40,-10.73,15.14,2
-0.02,-0.41,-0.93,5.62,-2.69,1.59,22.39,-10.95,14.14,2
-0.02,-0.40,-0.92,3.42,-2.38,1.95,22.57,-11.74,14.67,2
-0.02,-0.41,-0.93,3.30,-2.56,2.01,22.78,-11.11,13.89,2
-0.02,-0.41,-0.92,3.85,-2.69,1.83,22.63,-10.33,14.33,2
-0.02,-0.41,-0.93,3.97,-2.69,1.71,22.74,-10.69,13.78,2
-0.02,-0.41,-0.92,5.37,-2.69,1.65,22.36,-10.95,14.37,2
-0.02,-0.41,-0.92,4.70,-2.62,1.22,22.88,-10.51,14.82,2
-0.02,-0.41,-0.92,4.46,-2.44,1.71,23.32,-11.13,13.39,2
-0.02,-0.41,-0.92,4.52,-2.32,2.01,22.96,-11.24,13.54,2
-0.02,-0.40,-0.93,4.27,-1.77,2.56,22.46,-11.13,13.85,2
-0.02,-0.40,-0.93,4.58,-2.20,2.14,23.05,-11.00,14.37,2
-0.03,-0.41,-0.92,5.86,-2.26,1.40,22.36,-10.71,13.93,2
-0.02,-0.40,-0.93,4.76,-1.95,2.08,22.12,-10.95,15.16,2
-0.03,-0.40,-0.93,5.31,-2.62,1.53,22.75,-11.21,14.15,2
-0.03,-0.40,-0.92,3.97,-2.01,2.38,22.52,-10.72,14.65,2
-0.03,-0.40,-0.93,6.53,-0.55,2.75,22.25,-10.52,14.12,2
-0.03,-0.40,-0.92,6.71,-1.59,2.08,22.20,-10.93,14.01,2
-0.03,-0.40,-0.93,6.29,-1.89,1.89,22.77,-11.69,14.28,2
-0.03,-0.40,-0.93,7.32,-2.08,1.71,22.79,-10.99,14.79,2
-0.03,-0.39,-0.93,9.58,-1.59,1.89,22.39,-10.93,14.66,2
-0.03,-0.40,-0.95,12.63,-2.20,0.98,21.89,-11.82,14.10,2
-0.03,-0.38,-0.93,8.06,-1.89,2.26,21.59,-11.56,14.26,2
-0.06,-0.38,-0.93,11.05,-2.08,1.46,21.75,-11.35,14.56,2
-0.03,-0.37,-0.94,15.01,-0.43,1.95,21.90,-11.68,14.77,2
-0.03,-0.36,-0.95,14.95,-1.22,1.16,21.58,-12.16,14.16,2
-0.03,-0.35,-0.94,16.48,-2.20,1.65,22.13,-12.38,13.72,2
-0.03,-0.31,-0.96,32.17,-0.85,0.61,21.78,-12.87,13.87,2
-0.04,-0.32,-0.96,16.42,-2.44,1.34,21.64,-13.07,12.99,2
-0.04,-0.29,-1.00,63.78,0.55,-2.50,21.24,-14.33,13.17,2
-0.05,-0.28,-0.98,30.40,-2.32,4.27,21.52,-15.11,15.06,2
-0.04,-0.22,-0.99,21.42,-2.20,1.89,21.45,-15.69,14.27,2
-0.04,-0.22,-0.99,14.34,-2.32,3.48,21.09,-15.92,13.13,2
-0.05,-0.19,-0.99,24.41,0.18,2.81,21.47,-16.66,13.51,2
-0.05,-0.17,-1.00,20.26,-0.67,1.89,21.52,-17.02,13.78,2
-0.05,-0.17,-0.99,16.36,-2.62,3.85,21.68,-17.53,14.05,2
-0.05,-0.14,-1.00,22.71,-1.22,-1.77,21.85,-18.15,13.11,2
-0.05,-0.13,-1.00,20.20,-2.26,-0.55,21.73,-17.82,12.27,2
-0.05,-0.12,-1.00,24.90,-1.22,0.49,21.90,-18.97,12.55,2
-0.06,-0.10,-1.01,29.24,1.10,0.67,22.16,-19.78,12.56,2
-0.06,-0.07,-1.01,28.38,-3.17,5.68,22.06,-20.03,12.70,2
-0.05,-0.04,-1.02,31.80,-5.19,3.42,21.79,-21.23,11.60,2
-0.06,-0.01,-1.01,22.71,-5.86,-1.46,21.46,-21.90,12.06,2
-0.04,0.02,-1.02,45.23,-10.50,-0.43,21.89,-22.63,11.36,2
-0.04,0.04,-1.00,30.40,-6.47,-1.34,22.41,-23.13,10.02,2
-0.04,0.07,-1.00,23.13,-10.31,-4.09,22.79,-24.33,10.05,2
-0.03,0.10,-1.01,40.77,-3.42,-1.83,23.00,-25.45,10.13,2
-0.03,0.13,-1.01,32.35,-2.38,2.32,23.14,-25.54,10.07,2
-0.03,0.16,-0.98,36.25,-5.98,2.81,23.47,-26.34,9.62,2
-0.03,0.22,-0.98,69.64,-8.91,0.67,23.30,-27.76,8.57,2
-0.02,0.25,-0.98,19.53,-2.81,2.44,22.89,-28.42,7.07,2
-0.02,0.28,-0.97,48.71,-6.65,-3.97,23.60,-29.28,6.70,2
-0.03,0.33,-0.98,32.41,-4.09,-4.64,22.88,-29.53,6.63,2
-0.01,0.37,-0.92,39.31,-6.71,1.65,23.32,-30.48,5.43,2
-0.01,0.36,-0.95,21.06,-3.23,0.12,23.23,-29.85,5.68,2
-0.01,0.38,-0.92,40.10,-3.36,-2.81,22.83,-30.62,4.25,2
-0.01,0.40,-0.93,4.70,-2.20,2.08,22.31,-30.38,4.75,2
-0.01,0.39,-0.94,-0.31,-2.20,2.56,22.49,-30.53,4.09,2
-0.01,0.39,-0.93,2.50,-1.83,2.14,22.29,-30.42,5.03,2
-0.01,0.39,-0.93,2.50,-2.56,2.01,22.28,-30.31,5.27,2
-0.01,0.38,-0.94,0.24,-0.73,1.59,22.17,-30.21,5.22,2
-0.02,0.38,-0.93,7.32,-2.44,1.10,22.66,-29.91,5.99,2
-0.01,0.39,-0.93,3.66,-2.38,2.01,22.49,-30.86,5.03,2
-0.01,0.39,-0.93,5.86,-2.75,1.77,22.09,-30.53,4.58,2
-0.01,0.39,-0.93,9.22,-3.48,1.28,22.05,-29.96,5.42,2
-0.01,0.39,-0.93,8.36,-2.62,1.34,22.17,-30.00,4.33,2
-0.02,0.39,-0.92,7.26,-2.38,0.37,22.23,-30.29,3.94,2
-0.02,0.39,-0.93,3.11,-1.83,0.55,22.11,-29.88,4.87,2
-0.02,0.39,-0.93,5.68,-2.99,1.40,22.34,-30.26,4.30,2
-0.02,0.39,-0.93,-2.32,-1.53,2.01,22.02,-30.08,4.54,2
-0.02,0.39,-0.94,5.68,-2.99,1.59,21.64,-30.83,4.88,2
-0.02,0.39,-0.93,2.69,-2.20,1.65,21.95,-29.92,4.64,2
-0.02,0.39,-0.93,2.26,-2.38,1.04,22.40,-29.91,4.46,2
-0.02,0.39,-0.93,8.06,-2.93,1.28,21.97,-29.85,5.10,2
-0.02,0.39,-0.93,3.54,-2.69,1.59,22.16,-30.04,4.47,2
-0.02,0.39,-0.93,2.99,-2.01,0.85,21.85,-29.99,4.13,2
-0.02,0.39,-0.93,1.77,-2.44,1.71,21.62,-29.68,4.83,2
-0.02,0.39,-0.93,4.39,-2.44,0.79,21.14,-29.58,5.41,2
-0.02,0.38,-0.93,2.99,-2.20,0.67,21.08,-29.68,5.52,2
-0.02,0.38,-0.93,5.37,-2.20,1.16,21.55,-29.93,4.92,2
-0.02,0.38,-0.93,3.78,-1.83,0.37,20.96,-28.71,5.35,2
-0.02,0.38,-0.93,2.56,-2.32,1.10,20.94,-29.14,4.66,2
-0.02,0.38,-0.93,2.14,-1.95,0.67,20.96,-29.92,4.44,2
-0.02,0.38,-0.94,4.03,-3.23,1.46,20.98,-28.66,4.19,2
-0.02,0.38,-0.93,4.03,-3.05,1.65,21.06,-28.78,5.51,2
-0.02,0.38,-0.93,4.94,-2.69,0.79,21.36,-29.70,5.14,2
-0.02,0.38,-0.93,5.19,-2.44,0.49,21.00,-28.94,4.44,2
-0.02,0.38,-0.93,1.34,-2.01,0.85,20.89,-29.37,4.94,2
-0.02,0.38,-0.93,4.70,-2.62,0.79,21.29,-29.03,4.72,2
-0.02,0.38,-0.93,6.65,-3.36,1.22,21.14,-29.21,5.15,2
-0.02,0.38,-0.93,2.44,-2.81,1.40,21.03,-29.35,5.21,2
-0.02,0.38,-0.93,5.92,-2.44,0.73,21.58,-29.15,4.47,2
-0.02,0.38,-0.93,4.52,-2.56,0.37,21.13,-29.10,4.87,2
-0.02,0.38,-0.93,7.93,-3.05,0.92,21.33,-29.09,4.22,2
-0.02,0.38,-0.93,2.93,-2.44,1.04,21.17,-28.89,4.75,2
-0.02,0.38,-0.93,3.97,-3.11,1.04,21.37,-29.19,5.44,2
-0.02,0.38,-0.93,4.27,-3.11,1.53,21.13,-29.93,5.15,2
-0.02,0.38,-0.93,6.53,-3.72,0.85,21.74,-29.25,4.74,2
-0.02,0.38,-0.93,4.64,-2.81,1.10,21.39,-29.46,4.98,2
-0.02,0.38,-0.93,3.97,-2.62,1.04,21.11,-29.85,5.55,2
-0.02,0.38,-0.93,5.07,-2.44,0.73,21.01,-29.70,5.85,2
-0.02,0.38,-0.93,2.93,-2.44,1.10,21.28,-29.42,5.41,2
-0.02,0.38,-0.93,4.58,-2.81,1.22,21.42,-29.69,4.03,2
-0.02,0.39,-0.93,3.78,-2.75,1.10,21.73,-29.44,4.32,2
-0.02,0.38,-0.93,3.48,-3.36,1.71,21.98,-29.65,4.32,2
-0.02,0.38,-0.93,4.33,-2.56,0.67,21.77,-29.44,4.36,2
-0.02,0.38,-0.93,8.30,-3.23,0.18,21.44,-29.55,4.39,2
-0.02,0.38,-0.93,4.64,-2.87,1.53,21.77,-29.14,4.28,2
-0.02,0.38,-0.93,0.06,-2.20,0.85,21.50,-29.54,5.27,2
-0.02,0.38,-0.93,3.17,-2.38,1.16,21.40,-28.87,5.40,2
-0.02,0.38,-0.94,2.38,-2.14,1.22,20.98,-29.35,4.58,2
-0.02,0.38,-0.93,3.36,-2.44,1.22,20.94,-29.41,5.18,2
-0.02,0.38,-0.94,3.91,-2.75,0.79,21.26,-29.08,5.85,2
-0.02,0.38,-0.93,5.74,-3.11,0.85,21.73,-29.55,5.37,2
-0.02,0.38,-0.94,4.64,-2.87,0.61,21.39,-29.25,5.55,2
-0.02,0.38,-0.93,4.39,-2.99,1.28,21.30,-29.33,4.48,2
-0.02,0.38,-0.94,1.53,-2.26,1.40,21.06,-29.36,5.41,2
-0.02,0.38,-0.93,7.57,-3.42,1.10,21.59,-29.36,4.96,2
-0.02,0.38,-0.93,2.14,-2.81,2.08,21.25,-29.05,4.77,2
-0.02,0.38,-0.94,6.71,-2.81,0.79,21.44,-28.92,5.33,2
-0.02,0.38,-0.93,3.85,-2.38,0.79,21.36,-28.92,5.73,2
-0.02,0.38,-0.94,6.65,-3.05,0.98,21.66,-29.30,5.37,2
-0.02,0.38,-0.93,2.08,-2.20,1.16,21.58,-29.05,5.08,2
-0.02,0.38,-0.93,6.10,-3.11,0.43,21.69,-29.24,4.60,2
-0.02,0.38,-0.93,3.05,-2.75,1.46,21.75,-29.24,5.32,2
-0.02,0.38,-0.93,5.62,-2.99,0.98,21.28,-29.46,5.26,2
-0.02,0.38,-0.94,3.66,-2.69,1.46,21.39,-29.24,4.22,2
-0.02,0.38,-0.93,6.04,-2.50,0.85,21.35,-29.09,4.42,2
-0.02,0.38,-0.93,3.66,-2.93,1.71,21.39,-29.14,5.46,2
-0.02,0.38,-0.94,2.81,-2.01,1.22,21.62,-29.28,4.72,2
-0.02,0.38,-0.93,5.62,-3.05,1.40,21.26,-29.26,4.19,2
-0.02,0.38,-0.93,3.23,-2.50,0.98,21.51,-28.70,4.57,2
-0.02,0.38,-0.93,5.68,-3.30,1.04,21.61,-29.19,4.46,2
-0.02,0.38,-0.94,2.44,-2.32,1.53,21.62,-29.38,4.64,2
-0.02,0.38,-0.94,3.91,-2.62,0.98,21.37,-29.33,4.70,2
-0.02,0.38,-0.93,3.48,-2.01,0.49,21.73,-29.59,3.83,2
-0.02,0.37,-0.94,2.62,-2.62,1.22,21.39,-29.49,3.59,2
-0.02,0.37,-0.93,-3.23,-1.77,1.40,21.59,-29.16,5.02,2
-0.03,0.36,-0.95,-12.63,-0.55,1.83,21.94,-28.47,5.59,2
-0.02,0.32,-0.94,-29.72,2.69,3.23,20.83,-27.73,6.43,2
-0.03,0.30,-0.96,-11.66,-0.85,1.34,20.70,-27.60,6.85,2
-0.04,0.26,-0.99,-30.64,1.22,2.38,20.90,-26.40,7.17,2
-0.03,0.25,-0.96,0.37,-4.33,3.17,21.63,-27.36,6.64,2
-0.04,0.26,-0.97,-8.18,-2.38,1.65,21.18,-26.61,7.85,2
-0.04,0.24,-0.97,-2.44,-2.87,0.43,20.74,-26.87,7.40,2
-0.04,0.22,-0.99,-8.18,-2.62,1.59,20.91,-25.94,8.03,2
-0.02,0.22,-0.99,-2.50,-6.59,5.37,21.07,-25.92,8.92,2
-0.03,0.21,-0.99,-6.53,-8.61,4.76,21.11,-26.37,9.01,2
0.00,0.19,-0.96,-9.95,-12.45,1.16,21.53,-25.88,8.51,2
-0.02,0.18,-1.02,-17.94,-7.87,-2.20,22.28,-26.07,9.11,2
-0.00,0.15,-1.00,-17.15,-14.83,0.79,22.14,-25.88,9.27,2
0.02,0.15,-0.99,-5.98,-17.52,-3.11,22.57,-24.63,10.33,2
0.03,0.12,-1.00,-8.24,-17.09,-2.93,22.61,-23.71,9.94,2
0.05,0.12,-1.01,-15.50,-18.98,-1.77,23.54,-23.79,9.56,2
0.06,0.09,-0.99,-14.53,-15.87,-1.34,23.89,-23.71,10.17,2
0.07,0.06,-1.01,-20.26,-15.87,1.59,23.43,-22.94,10.36,2
0.09,0.04,-1.00,-11.66,-18.25,1.83,24.63,-22.00,10.88,2
0.10,0.02,-1.02,-12.02,-18.25,1.46,25.24,-22.00,10.91,2
0.12,0.03,-0.99,-12.70,-10.25,5.62,24.90,-21.11,10.96,2
0.13,-0.01,-0.98,-22.71,-16.54,-3.72,24.83,-20.57,9.94,2
0.14,-0.03,-1.00,-18.37,-12.45,0.31,25.07,-19.78,11.29,2
0.16,-0.04,-1.00,-12.94,-13.18,-2.14,25.46,-19.03,12.05,2
0.17,-0.07,-1.00,-13.18,-14.59,-1.83,25.04,-18.99,11.25,2
0.17,-0.10,-1.00,-7.20,-7.08,-1.46,26.06,-18.68,10.95,2
0.18,-0.09,-0.99,-4.09,-9.83,3.30,26.77,-18.23,10.52,2
0.19,-0.11,-0.99,-7.32,-7.02,2.62,26.46,-18.03,10.74,2
0.18,-0.12,-0.99,-0.31,-10.80,1.71,26.16,-17.32,11.82,2
0.21,-0.10,-0.99,3.85,-8.42,3.23,26.44,-17.98,11.43,2
0.21,-0.11,-0.97,0.49,-9.22,1.46,26.48,-17.70,12.34,2
0.21,-0.12,-0.98,2.08,-2.56,2.01,26.66,-17.54,12.07,2
0.21,-0.11,-0.97,8.24,-1.46,1.83,27.22,-18.15,12.50,2
0.21,-0.12,-0.98,6.71,-4.52,-0.79,27.37,-17.74,12.85,2
0.23,-0.12,-0.99,18.25,-8.24,1.65,27.04,-18.07,11.07,2
0.22,-0.09,-0.96,12.33,-7.14,1.46,27.17,-18.55,10.74,2
0.22,-0.10,-0.98,13.37,-6.90,0.37,27.43,-18.97,11.22,2
0.24,-0.09,-0.98,4.94,-2.69,0.37,27.16,-19.13,10.62,2
0.21,-0.08,-0.98,8.06,-6.84,-1.95,27.84,-19.43,10.51,2
0.22,-0.07,-0.97,4.39,-4.52,0.18,28.00,-19.20,10.89,2
0.23,-0.10,-1.00,-0.61,-4.27,1.34,27.86,-19.36,10.95,2
0.23,-0.09,-0.96,-8.00,-5.31,-0.67,28.08,-18.96,11.12,2
0.23,-0.12,-0.99,-18.19,-4.09,3.11,29.24,-19.06,11.83,2
0.22,-0.13,-0.95,-19.10,-3.78,-2.87,29.19,-18.57,12.29,2
0.24,-0.15,-0.97,3.23,-6.96,0.12,29.05,-18.07,11.66,2
0.24,-0.15,-0.97,-11.78,0.55,-0.43,28.96,-18.01,12.38,2
0.24,-0.17,-0.97,-2.93,-1.59,0.12,28.98,-17.43,11.82,2
0.23,-0.16,-0.97,12.02,4.21,-4.03,28.14,-17.14,11.16,2
0.22,-0.18,-1.01,8.67,-2.01,3.17,27.89,-17.16,11.84,2
0.24,-0.12,-0.94,11.35,-3.05,4.76,27.98,-17.14,11.32,2
0.23,-0.14,-0.98,15.01,-4.03,0.06,28.66,-17.37,10.35,2
0.23,-0.13,-0.97,8.48,-3.30,2.62,28.28,-17.54,10.71,2
0.22,-0.14,-0.99,14.89,-2.01,3.85,27.88,-17.53,10.34,2
0.23,-0.08,-0.96,11.11,-4.27,4.94,28.05,-17.64,10.73,2
0.23,-0.13,-0.99,-0.49,3.60,3.17,28.11,-18.07,10.84,2
0.23,-0.13,-0.96,2.14,-1.16,0.18,28.28,-18.48,11.32,2
0.22,-0.09,-0.99,0.85,-0.85,0.73,28.16,-17.79,11.43,2
0.22,-0.14,-0.97,-8.42,-3.66,0.55,28.71,-17.46,11.74,2
0.22,-0.15,-0.96,-1.95,-0.12,0.85,28.12,-17.50,12.57,2
0.22,-0.15,-0.98,8.85,-3.36,2.01,28.27,-16.89,12.08,2
0.22,-0.14,-0.98,3.48,-3.30,0.79,28.20,-17.80,10.78,2
0.22,-0.14,-0.96,13.31,-4.27,1.53,28.36,-17.14,10.97,2
0.22,-0.14,-0.97,8.18,-3.91,1.53,27.94,-17.58,10.86,2
0.23,-0.13,-0.96,21.73,-5.25,0.06,28.05,-17.59,11.71,2
0.23,-0.12,-0.98,8.42,-4.09,0.98,27.82,-17.08,11.52,2
0.23,-0.12,-0.98,2.08,-6.10,2.87,28.28,-17.66,10.74,2
0.23,-0.11,-0.97,3.30,-5.55,2.93,28.47,-18.13,11.50,2
0.23,-0.11,-0.97,1.04,-4.70,1.77,28.56,-18.24,10.74,2
0.23,-0.12,-0.98,9.40,-4.39,0.67,28.69,-18.21,10.49,2
0.24,-0.11,-0.97,3.48,-3.05,1.77,28.69,-18.02,11.43,2
0.24,-0.11,-0.97,2.93,-3.91,0.67,28.49,-17.99,11.25,2
0.24,-0.12,-0.98,3.36,-5.19,1.16,28.52,-17.99,11.23,2
0.24,-0.12,-0.97,4.33,-3.23,-0.37,28.83,-17.79,10.64,2
0.24,-0.12,-0.97,3.91,-2.93,2.08,29.55,-18.09,11.15,2
0.24,-0.11,-0.97,2.81,-3.36,1.28,28.82,-18.08,10.99,2
0.24,-0.12,-0.97,0.85,-3.54,0.98,29.04,-17.99,11.55,2
0.24,-0.12,-0.97,2.01,-2.32,0.31,29.30,-17.83,10.62,2
0.24,-0.12,-0.97,5.07,-2.75,1.04,28.80,-17.66,11.34,2
0.24,-0.13,-0.97,6.84,-3.66,1.22,28.70,-18.16,10.16,2
0.24,-0.12,-0.98,5.68,-1.77,0.73,28.59,-17.75,11.06,2
0.24,-0.12,-0.97,7.57,-3.54,0.55,28.92,-17.66,10.38,2
0.24,-0.11,-0.97,6.71,-1.46,0.98,28.66,-18.10,10.60,2
0.24,-0.11,-0.97,7.75,-3.42,1.22,28.16,-18.26,11.95,2
0.24,-0.11,-0.97,5.00,-2.87,1.22,28.50,-18.51,10.39,2
0.24,-0.11,-0.97,5.25,-2.87,1.53,28.14,-18.65,11.07,2
0.24,-0.11,-0.97,5.74,-3.23,0.49,28.00,-18.15,9.79,2
0.24,-0.11,-0.97,4.88,-3.23,1.22,28.49,-18.35,10.40,2
0.24,-0.11,-0.97,4.82,-2.75,0.55,28.93,-18.12,10.50,2
0.24,-0.11,-0.97,4.39,-2.20,2.20,28.30,-17.85,10.14,2
0.24,-0.11,-0.98,2.38,-1.77,-0.49,28.27,-18.32,11.02,2
0.24,-0.12,-0.97,1.83,-4.03,0.43,28.41,-17.64,10.93,2
0.24,-0.11,-0.97,2.62,-2.99,1.34,29.16,-18.38,9.94,2
0.24,-0.11,-0.97,3.66,-3.85,1.46,28.58,-18.27,10.45,2
0.24,-0.12,-0.97,2.32,-2.26,1.59,28.74,-18.23,10.34,2
0.24,-0.11,-0.97,4.46,-2.75,1.59,28.53,-18.48,10.63,2
0.24,-0.12,-0.97,3.42,-2.81,1.04,28.55,-18.46,10.95,2
0.24,-0.11,-0.97,4.52,-2.87,1.40,28.34,-18.71,10.61,2
0.24,-0.12,-0.97,5.74,-2.99,2.26,28.22,-17.87,11.39,2
0.24,-0.11,-0.97,6.77,-2.75,2.38,29.09,-18.74,10.95,2
0.24,-0.11,-0.98,2.81,-2.08,1.04,28.93,-18.32,11.19,2
0.24,-0.11,-0.97,3.11,-2.56,1.04,28.86,-18.55,10.19,2
0.24,-0.11,-0.97,2.26,-2.20,0.43,28.85,-18.37,12.18,2
0.24,-0.12,-0.97,2.14,-2.56,1.10,28.20,-18.62,10.88,2
0.23,-0.12,-0.97,1.40,-1.59,1.22,28.36,-18.51,11.33,2
0.24,-0.12,-0.98,5.98,-2.44,3.66,28.34,-18.26,11.45,2
0.24,-0.12,-0.97,4.39,-0.31,2.38,28.64,-18.53,12.08,2
0.24,-0.12,-0.97,4.27,-2.69,1.53,28.16,-18.57,12.00,2
0.24,-0.11,-0.98,3.60,-1.28,0.12,28.26,-18.98,11.93,2
0.24,-0.12,-0.97,2.81,-4.09,-0.12,28.34,-18.27,11.52,2
0.24,-0.12,-0.97,3.66,-1.46,1.10,28.10,-18.74,10.50,2
0.24,-0.12,-0.97,4.09,-3.42,1.46,28.49,-18.48,10.94,2
0.24,-0.12,-0.97,3.30,-1.71,1.34,28.58,-18.79,11.08,2
0.24,-0.12,-0.97,5.49,-2.20,2.50,27.61,-18.40,11.19,2
0.23,-0.12,-0.98,5.80,-1.10,1.22,27.60,-18.82,11.44,2
0.24,-0.12,-0.97,5.43,-4.03,1.22,28.22,-18.32,11.67,2
0.23,-0.12,-0.98,5.37,-2.62,-0.12,28.06,-18.19,10.90,2
0.23,-0.12,-0.97,2.62,-3.48,2.14,28.45,-18.44,11.43,2
0.23,-0.12,-0.98,2.75,-2.75,0.43,28.22,-18.59,11.12,2
0.23,-0.12,-0.97,1.83,-3.36,1.28,27.97,-18.31,12.26,2
0.23,-0.12,-0.98,1.89,-1.65,0.55,28.54,-19.23,11.36,2
0.24,-0.13,-0.97,-4.15,-4.88,0.67,28.41,-18.02,11.07,2
0.23,-0.14,-0.97,3.60,0.98,2.50,27.99,-18.04,11.60,2
0.23,-0.13,-0.98,4.88,0.18,3.72,28.39,-17.99,11.88,2
0.23,-0.13,-1.00,4.15,1.40,0.43,28.80,-18.52,12.04,2
0.22,-0.13,-0.98,12.08,0.06,4.09,28.22,-18.46,10.93,2
0.23,-0.12,-0.97,8.30,2.99,-1.28,28.04,-18.98,11.80,2
0.21,-0.12,-0.97,8.24,6.10,2.01,27.64,-18.48,11.49,2
0.20,-0.12,-1.00,3.85,-0.31,4.39,27.61,-18.64,11.69,2
0.20,-0.12,-0.97,0.24,5.37,0.12,27.73,-18.76,11.34,2
0.19,-0.13,-0.98,-6.53,5.68,1.34,27.31,-18.47,12.22,2
0.18,-0.14,-1.01,13.79,10.31,1.40,27.54,-18.41,11.17,2
0.17,-0.12,-0.99,19.10,8.67,-1.59,27.56,-19.45,11.45,2
0.13,-0.12,-0.99,-1.77,12.15,5.25,27.29,-19.38,11.80,2
0.14,-0.13,-0.97,-11.90,20.75,6.16,26.35,-19.58,12.45,2
0.12,-0.15,-1.00,0.92,12.51,1.95,25.98,-19.08,13.04,2
0.11,-0.11,-0.97,33.57,8.54,2.56,25.85,-19.57,12.51,2
0.09,-0.10,-1.03,11.66,11.60,3.05,25.39,-20.30,11.93,2
0.08,-0.08,-0.96,25.33,13.49,-0.18,24.95,-20.65,11.74,2
0.06,-0.07,-1.04,26.86,31.80,2.87,24.16,-20.72,12.85,2
0.04,-0.04,-0.98,10.19,20.63,4.76,23.99,-21.25,12.27,2
-0.00,-0.04,-0.99,16.97,31.31,4.88,22.99,-21.77,11.82,2
-0.03,-0.03,-1.01,14.89,28.26,2.93,21.56,-21.97,11.52,2
-0.07,-0.01,-1.01,-7.51,34.18,4.94,21.45,-21.28,11.35,2
-0.12,-0.05,-1.02,-3.42,52.49,0.37,20.29,-21.86,12.17,2
-0.14,-0.03,-0.99,9.58,22.46,2.38,19.49,-21.95,12.01,2
-0.17,-0.03,-0.97,4.21,12.02,-0.55,18.73,-22.35,11.57,2
-0.19,-0.02,-1.03,15.75,8.61,-4.15,18.73,-22.07,11.80,2
-0.20,-0.02,-0.96,5.98,14.95,-1.16,18.79,-22.29,11.68,2
-0.21,-0.01,-0.98,-9.40,25.51,4.52,18.68,-22.51,12.16,2
-0.24,-0.04,-1.02,-18.55,18.80,5.37,17.42,-21.56,12.27,2
-0.26,-0.05,-0.97,-0.24,4.58,-0.18,17.32,-21.63,12.48,2
-0.27,-0.05,-1.00,5.19,-0.79,-2.38,16.65,-21.74,12.90,2
-0.26,-0.05,-0.97,6.10,7.81,-1.22,16.17,-21.62,12.29,2
-0.28,-0.05,-0.98,11.60,12.15,-5.80,17.07,-22.28,12.39,2
-0.29,-0.04,-0.95,8.67,3.11,0.06,16.30,-22.78,11.34,2
-0.31,-0.03,-0.97,4.09,10.62,-0.98,16.38,-22.61,11.71,2
-0.31,-0.04,-0.95,-0.79,11.84,-0.85,15.91,-22.55,11.29,2
-0.33,-0.04,-0.97,1.16,2.81,1.10,15.76,-22.14,11.57,2
-0.33,-0.05,-0.95,1.59,7.32,0.49,16.02,-22.68,11.44,2
-0.34,-0.04,-0.95,4.88,-1.46,0.79,15.76,-22.40,10.35,2
-0.33,-0.05,-0.96,4.70,-0.12,0.55,15.48,-22.29,11.35,2
-0.34,-0.04,-0.96,1.46,-1.46,-0.18,15.66,-22.14,11.39,2
-0.34,-0.05,-0.96,-1.22,0.24,1.71,15.56,-21.98,11.32,2
-0.33,-0.05,-0.95,-2.93,7.87,-0.31,15.63,-21.87,12.08,2
-0.36,-0.06,-0.95,-0.31,1.28,1.71,15.67,-21.95,12.18,2
-0.36,-0.06,-0.94,2.32,1.77,0.31,15.58,-22.23,11.66,2
-0.36,-0.06,-0.94,3.48,-2.38,0.31,15.60,-22.11,11.25,2
-0.36,-0.06,-0.95,3.17,-0.06,0.98,15.53,-21.92,12.21,2
-0.36,-0.06,-0.94,3.11,-0.73,1.28,15.37,-21.62,11.32,2
-0.36,-0.06,-0.94,2.62,-1.04,1.59,15.26,-21.84,11.40,2
-0.36,-0.07,-0.95,3.60,-2.50,1.65,15.15,-21.57,10.52,2
-0.37,-0.06,-0.94,4.27,-4.46,2.26,14.98,-20.98,11.61,2
-0.36,-0.07,-0.95,4.64,-3.11,1.10,15.01,-21.31,11.23,2
-0.36,-0.06,-0.94,4.64,-5.00,2.56,15.38,-20.90,11.30,2
-0.36,-0.07,-0.95,3.05,-3.91,1.59,15.09,-21.67,11.98,2
-0.36,-0.06,-0.94,4.39,-3.78,0.73,14.89,-21.18,12.54,2
-0.36,-0.07,-0.95,5.19,-3.17,2.69,14.95,-22.12,11.58,2
-0.36,-0.07,-0.94,4.70,-1.95,1.89,15.15,-20.98,11.73,2
-0.36,-0.07,-0.95,4.46,-2.75,1.59,14.97,-21.13,10.69,2
-0.35,-0.06,-0.94,5.49,-4.82,1.10,14.70,-21.53,10.93,2
-0.35,-0.06,-0.95,3.91,-3.11,1.89,15.32,-21.12,12.18,2
-0.35,-0.06,-0.95,4.58,-3.54,1.59,15.31,-21.15,11.91,2
-0.36,-0.06,-0.95,3.78,-2.99,1.83,15.10,-22.00,11.49,2
-0.35,-0.07,-0.95,4.09,-2.50,1.34,15.41,-21.37,11.77,2
-0.36,-0.06,-0.95,2.81,-3.17,2.08,15.63,-21.47,11.25,2
-0.36,-0.07,-0.95,4.94,-4.03,1.04,15.58,-21.73,12.49,2
-0.35,-0.06,-0.95,5.62,-2.93,2.01,15.53,-21.56,12.27,2
-0.35,-0.07,-0.95,4.21,-2.44,1.71,15.14,-21.69,11.73,2
-0.35,-0.06,-0.95,3.66,-3.54,1.40,15.45,-21.19,10.97,2
-0.35,-0.07,-0.95,4.46,-2.62,1.65,15.17,-21.37,11.63,2
-0.35,-0.06,-0.94,4.82,-2.93,1.65,15.47,-21.53,11.98,2
-0.35,-0.06,-0.95,3.91,-2.69,2.38,15.22,-21.06,11.18,2
-0.35,-0.06,-0.95,5.55,-2.69,1.28,15.49,-21.24,11.44,2
-0.35,-0.06,-0.95,4.15,-3.11,2.01,15.22,-21.41,11.55,2
-0.35,-0.06,-0.95,4.64,-2.14,1.04,15.38,-21.23,10.93,2
-0.35,-0.06,-0.95,3.97,-4.70,2.26,15.34,-20.98,11.33,2
-0.35,-0.07,-0.95,5.49,-2.32,0.43,15.17,-21.28,11.05,2
-0.35,-0.06,-0.95,4.94,-4.70,2.26,15.10,-21.03,10.66,2
-0.34,-0.06,-0.95,4.27,-2.14,1.77,14.62,-20.75,11.04,2
-0.35,-0.06,-0.95,5.07,-4.03,1.46,14.99,-20.69,10.88,2
-0.34,-0.06,-0.95,6.35,-2.08,1.95,15.14,-20.96,12.13,2
-0.35,-0.06,-0.95,4.88,-2.26,1.53,14.83,-21.07,10.89,2
-0.35,-0.06,-0.95,3.48,-2.99,1.34,15.15,-21.17,10.82,2
-0.35,-0.06,-0.95,4.94,-2.87,1.59,14.97,-20.72,10.52,2
-0.35,-0.06,-0.95,5.13,-2.69,1.71,15.28,-20.94,10.94,2
-0.35,-0.06,-0.95,5.43,-3.05,2.14,14.53,-20.79,10.78,2
-0.35,-0.06,-0.95,5.31,-1.83,0.85,14.22,-20.97,10.28,2
-0.34,-0.05,-0.95,5.13,-3.17,1.34,14.83,-21.29,10.88,2
-0.35,-0.06,-0.95,5.37,-2.14,1.40,14.71,-21.26,10.68,2
-0.35,-0.05,-0.95,4.21,-3.11,1.77,14.61,-21.47,11.44,2
-0.35,-0.06,-0.95,4.52,-2.62,1.89,14.87,-21.36,11.11,2
-0.35,-0.05,-0.95,4.21,-2.87,1.71,15.32,-21.57,11.06,2
-0.35,-0.06,-0.95,3.17,-3.30,2.50,14.90,-20.69,11.19,2
-0.35,-0.06,-0.95,5.37,-2.32,0.92,15.36,-21.75,11.34,2
-0.35,-0.05,-0.95,4.94,-3.42,1.89,14.69,-21.17,11.46,2
-0.34,-0.06,-0.95,5.37,-1.89,1.77,14.90,-21.20,11.79,2
-0.35,-0.05,-0.95,4.09,-2.99,0.98,14.99,-21.45,11.18,2
-0.35,-0.05,-0.95,4.27,-2.62,2.01,14.97,-21.28,11.01,2
-0.35,-0.05,-0.95,5.31,-2.44,1.16,15.09,-21.34,12.06,2
-0.35,-0.06,-0.95,3.17,-3.30,2.99,15.33,-20.92,10.97,2
-0.34,-0.05,-0.95,4.94,-1.22,1.16,15.23,-21.30,11.19,2
-0.35,-0.05,-0.95,4.64,-3.23,2.01,15.06,-21.61,10.99,2
-0.35,-0.05,-0.95,4.27,-3.23,1.10,15.17,-21.26,10.86,2
-0.35,-0.05,-0.95,3.91,-2.44,1.59,14.92,-20.45,12.28,2
-0.35,-0.05,-0.95,4.46,-3.17,1.28,14.77,-21.31,11.38,2
-0.35,-0.05,-0.95,3.91,-2.44,1.40,15.06,-21.14,11.56,2
-0.35,-0.06,-0.95,2.87,-2.69,2.20,14.87,-21.15,10.66,2
-0.35,-0.06,-0.95,4.76,-2.50,1.10,15.08,-21.20,10.86,2
-0.35,-0.06,-0.95,4.88,-3.91,1.83,15.08,-21.14,11.02,2
-0.34,-0.05,-0.95,4.27,-2.14,1.65,15.25,-20.85,10.91,2
-0.35,-0.06,-0.95,3.42,-3.72,1.77,15.64,-21.11,11.35,2
-0.34,-0.06,-0.95,4.27,-3.30,1.10,14.97,-21.41,11.76,2
-0.35,-0.06,-0.95,3.66,-3.66,2.08,15.28,-21.41,11.71,2
-0.34,-0.06,-0.95,5.00,-3.05,1.28,15.45,-21.28,11.30,2
-0.34,-0.06,-0.95,3.54,-3.11,2.20,15.49,-21.73,11.63,2
-0.35,-0.05,-0.95,4.88,-2.01,0.55,15.15,-21.48,12.06,2
-0.34,-0.06,-0.96,3.42,-3.17,2.01,15.61,-21.35,12.06,2
-0.35,-0.06,-0.95,3.48,-1.71,0.79,15.61,-21.08,11.54,2
-0.35,-0.06,-0.95,3.30,-3.66,1.46,15.03,-21.39,11.69,2
-0.34,-0.06,-0.95,2.75,-3.54,1.34,15.92,-21.37,11.84,2
-0.34,-0.06,-0.95,1.16,-3.36,0.00,15.77,-21.57,11.58,2
-0.34,-0.06,-0.95,1.16,-3.91,-0.67,16.65,-21.79,11.05,2
-0.34,-0.04,-0.95,3.54,-2.44,-2.56,16.33,-21.73,10.93,2
-0.34,-0.14,-0.95,-7.87,-0.18,-3.78,15.70,-20.89,11.89,2
-0.35,-0.08,-0.96,-6.71,-4.03,-1.53,15.89,-20.45,11.16,2
-0.35,-0.09,-0.98,-24.90,-3.30,-0.49,16.19,-20.58,11.49,2
-0.33,-0.14,-0.94,-28.75,-0.37,-2.14,15.69,-19.48,13.17,2
-0.36,-0.15,-0.94,-20.63,0.43,-5.49,15.82,-18.21,12.65,2
-0.36,-0.18,-0.95,-29.17,-4.03,-3.85,16.60,-18.09,12.78,2
-0.37,-0.27,-0.81,-63.11,-4.58,-16.78,16.13,-16.38,12.99,2
-0.36,-0.25,-0.93,-16.97,-5.37,-4.70,16.10,-16.27,13.40,2
-0.35,-0.26,-0.91,1.83,-3.30,-2.87,16.00,-15.32,14.00,2
-0.36,-0.26,-0.91,-0.67,-2.99,-2.56,16.31,-15.63,13.75,2
-0.36,-0.26,-0.91,0.98,-3.30,1.77,16.02,-15.45,13.73,2
-0.36,-0.26,-0.92,-2.44,-3.42,0.37,16.64,-15.71,13.96,2
-0.35,-0.28,-0.90,0.18,-3.97,2.20,16.42,-14.87,14.23,2
-0.36,-0.27,-0.92,5.68,-3.48,1.53,16.20,-15.41,13.56,2
-0.35,-0.27,-0.90,2.99,-3.36,2.62,16.53,-14.75,13.78,2
-0.35,-0.28,-0.90,7.75,-1.89,1.89,16.64,-14.14,14.17,2
-0.35,-0.27,-0.90,8.85,-4.03,1.22,16.99,-15.44,14.62,2
-0.35,-0.27,-0.91,2.81,-4.33,5.86,16.41,-14.87,13.50,2
-0.35,-0.26,-0.92,8.61,-6.10,3.85,16.86,-15.61,12.87,2
-0.34,-0.27,-0.91,2.81,-7.57,6.96,17.20,-15.11,13.55,2
-0.34,-0.27,-0.92,7.51,-6.84,5.80,17.47,-15.09,12.33,2
-0.31,-0.26,-0.90,6.84,-14.16,7.81,16.78,-15.23,12.93,2
-0.34,-0.29,-0.89,8.18,-23.19,0.18,16.80,-15.39,13.10,2
-0.31,-0.28,-0.93,-1.95,-14.53,2.81,18.05,-14.81,13.24,2
-0.28,-0.27,-0.92,-6.10,-16.17,9.03,18.12,-14.50,13.35,2
-0.27,-0.31,-0.91,-30.94,-19.96,15.87,18.73,-13.92,13.89,2
-0.24,-0.34,-0.92,-17.09,-19.10,13.43,18.85,-12.45,14.48,2
-0.22,-0.34,-0.91,-2.75,-16.72,10.44,19.59,-12.45,14.49,2
-0.20,-0.37,-0.93,-17.27,-28.32,23.44,19.26,-12.07,14.94,2
-0.18,-0.38,-0.97,-2.01,-22.28,12.57,19.89,-11.49,14.04,2
-0.14,-0.38,-0.91,-12.08,-37.60,22.58,21.20,-11.56,13.89,2
-0.10,-0.45,-0.98,-17.52,-49.87,24.48,22.33,-10.72,15.11,2
-0.03,-0.41,-0.86,-12.15,-33.02,21.67,23.51,-9.81,14.78,2
-0.02,-0.47,-0.92,-24.60,-28.87,20.75,24.45,-9.33,14.92,2
0.03,-0.49,-0.89,-16.05,-36.87,26.00,24.95,-8.40,13.49,2
0.06,-0.49,-0.90,7.93,-28.50,16.30,25.62,-8.59,13.72,2
0.10,-0.47,-0.88,-0.12,-24.41,16.11,26.21,-8.19,13.22,2
0.10,-0.50,-0.88,-34.24,-11.90,9.09,26.59,-7.65,12.44,2
0.12,-0.54,-0.85,-38.33,-8.54,8.54,26.60,-6.91,14.04,2
0.13,-0.57,-0.83,-10.44,-7.26,10.50,26.67,-5.21,12.32,2
0.14,-0.57,-0.79,3.72,-19.53,17.15,27.72,-5.09,12.18,2
0.15,-0.58,-0.82,1.40,-8.12,6.04,27.47,-5.13,13.21,2
0.17,-0.57,-0.80,2.99,-8.61,7.57,27.16,-5.69,11.94,2
0.18,-0.58,-0.82,2.44,-5.92,5.74,28.09,-5.68,12.92,2
0.18,-0.57,-0.80,1.04,-6.71,5.98,27.71,-5.03,11.99,2
0.19,-0.58,-0.81,1.04,-7.39,5.55,28.41,-5.48,12.76,2
0.21,-0.61,-0.79,-1.40,-5.31,3.97,28.39,-4.94,12.61,2
0.20,-0.58,-0.79,-5.86,-4.64,4.21,28.33,-4.77,12.76,2
0.20,-0.58,-0.80,-1.04,-3.97,2.75,28.05,-4.61,12.60,2
0.20,-0.59,-0.78,-0.55,-4.09,3.85,28.37,-4.22,13.11,2
0.21,-0.60,-0.80,6.59,-4.88,2.26,28.05,-4.47,11.99,2
0.21,-0.60,-0.79,-1.10,-5.00,3.60,28.26,-4.09,12.37,2
0.22,-0.60,-0.79,-0.06,-3.60,0.67,28.34,-4.58,11.34,2
0.21,-0.61,-0.78,-2.99,-1.89,2.26,28.20,-4.03,11.15,2
0.21,-0.61,-0.78,7.14,-2.62,0.49,28.15,-4.17,11.77,2
0.21,-0.61,-0.78,1.22,-2.93,0.31,28.75,-4.46,11.88,2
0.21,-0.61,-0.79,8.18,-2.38,1.95,28.14,-3.97,12.18,2
0.21,-0.61,-0.78,3.42,-2.08,-0.18,28.47,-4.63,12.78,2
0.21,-0.61,-0.78,5.31,-3.97,0.24,28.54,-3.93,12.72,2
0.21,-0.61,-0.77,1.71,-2.50,1.71,28.12,-4.71,12.08,2
0.21,-0.61,-0.78,3.97,-1.77,0.92,27.95,-4.15,12.49,2
0.21,-0.61,-0.78,6.59,-2.01,1.83,28.53,-4.37,12.72,2
0.21,-0.61,-0.78,2.20,-3.42,2.26,28.54,-3.76,11.87,2
0.21,-0.61,-0.78,2.99,-3.11,2.14,28.30,-4.00,11.93,2
0.21,-0.60,-0.77,8.12,-3.48,2.69,28.41,-4.35,13.04,2
0.21,-0.61,-0.79,11.35,-4.33,4.15,28.81,-4.46,11.25,2
0.22,-0.59,-0.78,7.63,-3.97,5.25,29.52,-5.02,13.24,2
0.22,-0.61,-0.78,6.16,-3.36,1.46,28.71,-5.00,13.02,2
0.22,-0.59,-0.78,4.82,-2.87,3.78,29.20,-5.07,12.19,2
0.22,-0.60,-0.79,7.93,-3.17,4.09,29.53,-5.20,12.07,2
0.21,-0.57,-0.80,15.08,-5.68,6.04,29.77,-5.81,11.79,2
0.23,-0.57,-0.80,13.67,-5.07,5.55,29.72,-6.08,11.73,2
0.23,-0.58,-0.79,12.94,-5.00,6.59,29.87,-6.47,13.45,2
0.23,-0.56,-0.80,13.73,-4.52,5.25,29.88,-6.75,14.05,2
0.24,-0.55,-0.82,15.63,-2.93,7.02,30.62,-6.65,13.53,2
0.24,-0.54,-0.81,20.51,-4.64,6.47,30.35,-7.31,13.04,2
0.22,-0.51,-0.78,35.77,-8.61,11.72,30.33,-8.11,13.48,2
0.25,-0.47,-0.85,27.34,-4.27,9.03,30.54,-9.30,12.76,2
0.28,-0.48,-0.90,44.56,-10.68,11.11,31.01,-10.19,12.66,2
0.27,-0.40,-0.86,49.74,-7.63,10.31,31.08,-11.32,12.87,2
0.28,-0.37,-0.91,62.38,-6.47,6.53,30.87,-12.99,11.85,2
0.27,-0.34,-0.89,39.25,-5.68,7.57,31.42,-14.14,12.82,2
0.29,-0.30,-0.95,53.83,-2.62,5.25,31.80,-14.92,12.19,2
0.29,-0.24,-0.95,48.89,-1.53,7.32,31.52,-16.88,11.98,2
0.29,-0.23,-0.97,39.79,0.31,4.82,31.32,-17.63,11.55,2
0.28,-0.17,-0.95,58.72,1.89,5.49,31.49,-19.09,11.67,2
0.28,-0.10,-0.96,64.88,-1.40,5.68,31.36,-20.50,10.36,2
0.28,-0.05,-0.97,63.66,-3.42,13.18,31.20,-21.28,10.94,2
0.28,0.01,-0.93,56.27,-0.43,7.20,30.87,-23.66,8.94,2
0.29,0.05,-0.99,41.32,-4.39,7.08,31.05,-24.51,9.20,2
0.29,0.09,-0.98,41.44,0.55,5.37,31.36,-25.59,8.35,2
0.28,0.11,-0.98,34.06,-1.65,3.48,31.30,-26.26,7.73,2
0.27,0.15,-0.96,33.20,-2.20,6.35,30.87,-27.12,7.03,2
0.28,0.17,-0.96,19.53,-0.55,2.75,30.10,-27.31,7.53,2
0.27,0.19,-0.93,29.60,-1.28,4.46,30.65,-28.02,6.87,2
0.27,0.21,-0.95,28.08,0.49,3.48,30.04,-28.42,6.98,2
0.27,0.22,-0.93,14.40,-3.97,3.72,30.20,-28.33,6.97,2
0.27,0.25,-0.93,24.35,-2.87,5.25,30.36,-28.80,5.76,2
0.27,0.25,-0.93,11.90,-2.14,4.03,30.35,-28.85,6.48,2
0.27,0.27,-0.93,13.55,-2.69,2.69,30.58,-29.80,4.42,2
0.27,0.28,-0.93,8.67,-2.69,2.62,30.80,-29.77,4.76,2
0.26,0.27,-0.93,5.07,-1.65,1.59,30.83,-30.15,5.60,2
0.26,0.28,-0.92,11.72,-3.05,1.46,30.86,-29.38,5.15,2
0.26,0.28,-0.92,6.41,-0.98,2.87,30.62,-29.87,6.04,2
0.26,0.28,-0.93,6.59,-1.34,2.69,30.16,-29.86,4.52,2
0.26,0.28,-0.93,0.18,-0.67,2.26,30.29,-30.37,4.72,2
0.26,0.28,-0.94,5.74,-0.43,1.95,30.33,-30.15,5.40,2
0.26,0.28,-0.92,2.75,-1.83,3.23,30.73,-29.83,5.36,2
0.25,0.29,-0.93,3.54,-0.12,1.77,30.33,-29.90,4.87,2
0.25,0.28,-0.93,4.15,-1.34,2.56,30.33,-29.81,5.44,2
0.25,0.28,-0.93,2.08,-0.31,2.20,29.79,-30.22,4.82,2
0.25,0.28,-0.93,3.48,-1.65,2.44,29.91,-29.83,4.64,2
0.25,0.28,-0.94,2.50,-2.14,1.40,30.13,-29.83,4.99,2
0.25,0.27,-0.93,1.95,-2.38,2.44,29.99,-29.92,5.75,2
0.25,0.27,-0.94,4.64,-1.53,2.14,29.43,-29.53,5.20,2
0.24,0.27,-0.93,0.85,-3.30,1.71,29.80,-29.16,5.79,2
0.25,0.27,-0.94,5.74,-1.77,1.71,30.13,-29.90,4.98,2
0.24,0.27,-0.93,7.75,-3.60,1.46,29.39,-29.14,5.60,2
0.24,0.27,-0.93,4.21,-0.18,2.93,29.31,-29.65,6.79,2
0.24,0.27,-0.93,4.46,-0.98,3.42,29.66,-29.83,5.36,2
0.23,0.27,-0.94,10.13,7.87,5.55,29.14,-29.83,5.40,2
0.22,0.28,-0.93,13.37,11.35,5.43,28.27,-29.22,5.70,2
0.20,0.29,-0.93,13.00,17.58,6.96,28.22,-29.57,5.22,2
0.19,0.29,-0.96,-8.73,13.06,5.92,27.55,-29.66,6.01,2
0.18,0.28,-0.94,-3.72,9.77,2.44,27.04,-29.97,5.86,2
0.16,0.28,-0.94,-10.38,16.36,1.40,27.09,-29.46,5.70,2
0.13,0.26,-0.99,-3.85,17.21,5.13,26.84,-29.30,6.18,2
0.12,0.28,-0.94,8.54,13.92,5.68,26.16,-29.31,6.52,2
0.10,0.27,-0.99,26.61,20.39,1.83,25.60,-29.75,7.34,2
0.08,0.31,-0.95,25.45,8.36,6.59,25.70,-29.81,6.74,2
0.07,0.31,-0.94,11.23,18.01,0.98,25.29,-30.71,6.13,2
0.04,0.33,-0.96,23.50,24.41,2.75,24.49,-31.16,6.59,2
0.02,0.33,-0.96,3.66,22.89,7.57,24.33,-30.86,6.69,2
-0.02,0.33,-0.99,5.13,31.62,9.77,22.81,-30.22,5.48,2
-0.04,0.33,-0.93,3.23,15.75,10.38,22.95,-31.41,6.30,2
-0.07,0.33,-0.96,20.14,31.74,8.42,22.24,-31.41,5.30,2
-0.12,0.35,-0.94,41.75,43.15,17.64,21.06,-31.43,5.69,2
-0.15,0.38,-0.94,22.09,14.47,14.22,20.83,-31.60,4.38,2
-0.20,0.49,-0.97,21.91,18.37,20.87,20.36,-32.34,5.03,2
-0.18,0.38,-0.90,3.91,5.00,5.31,19.53,-32.28,3.72,2
-0.19,0.39,-0.92,0.79,5.13,5.98,19.43,-32.56,4.26,2
-0.21,0.38,-0.91,1.53,14.16,6.35,19.41,-31.81,5.19,2
-0.22,0.36,-0.92,-27.77,23.32,13.55,18.23,-31.38,4.85,2
-0.25,0.32,-0.93,-21.48,18.62,9.09,17.58,-31.02,5.51,2
-0.27,0.29,-0.92,-13.24,17.46,7.75,17.18,-30.31,6.02,2
-0.29,0.29,-0.94,-18.74,11.41,8.67,16.77,-30.14,5.82,2
-0.30,0.26,-0.93,-16.48,20.32,9.64,16.41,-29.52,7.04,2
-0.33,0.22,-0.93,-18.49,12.63,16.36,15.64,-29.13,7.24,2
-0.33,0.20,-0.93,-2.87,11.29,9.40,14.89,-27.69,8.65,2
-0.35,0.20,-0.93,1.77,1.53,8.85,14.60,-28.14,7.57,2
-0.34,0.23,-0.94,7.57,1.28,12.33,14.28,-27.81,8.00,2
-0.36,0.20,-0.93,6.77,-5.13,3.91,14.14,-27.95,8.01,2
-0.35,0.20,-0.92,8.42,-0.92,4.09,13.92,-27.67,8.22,2
-0.35,0.22,-0.93,6.47,-6.16,7.63,14.31,-28.25,7.30,2
-0.36,0.19,-0.94,6.65,-5.55,7.02,14.17,-28.21,7.76,2
-0.36,0.10,-0.91,13.49,-1.16,16.11,13.68,-28.30,6.53,2
-0.35,0.21,-0.93,13.06,-5.37,5.62,13.73,-28.58,6.82,2
-0.36,0.21,-0.91,11.54,-1.77,5.19,13.61,-28.53,7.30,2
-0.36,0.22,-0.94,3.17,-1.65,8.79,14.37,-29.33,6.76,2
-0.37,0.21,-0.93,16.11,4.21,8.00,13.73,-28.49,6.63,2
-0.43,-0.06,-0.99,3.91,2.14,10.07,13.51,-28.65,7.09,2
-0.36,0.15,-0.91,-2.62,1.77,18.19,12.29,-28.58,6.80,2
-0.39,0.21,-0.92,-2.14,1.40,12.27,12.81,-28.71,6.68,2
-0.39,0.20,-0.92,2.32,1.46,6.65,12.22,-27.92,7.20,2
-0.39,0.18,-0.92,1.83,-4.03,8.00,12.70,-28.28,6.15,2
-0.39,0.20,-0.91,3.11,-2.81,10.50,11.69,-27.99,7.29,2
-0.39,0.16,-0.93,2.62,-9.34,7.75,11.88,-27.20,7.80,2
-0.38,0.17,-0.91,6.59,-0.73,2.50,11.68,-27.47,7.39,2
-0.39,0.18,-0.92,4.70,-6.77,3.72,12.11,-27.47,7.39,2
-0.39,0.17,-0.93,8.30,-2.99,1.53,11.84,-27.27,6.64,2
-0.38,0.18,-0.91,4.58,-2.14,2.08,11.98,-27.17,6.71,2
-0.38,0.18,-0.92,5.86,-4.39,3.42,11.49,-27.94,6.40,2
-0.38,0.18,-0.91,4.76,-3.72,1.59,11.96,-27.75,7.32,2
-0.38,0.18,-0.93,5.62,-2.38,1.65,11.22,-27.88,7.39,2
-0.38,0.19,-0.91,2.69,-0.43,5.92,11.16,-27.39,6.43,2
-0.38,0.18,-0.92,2.01,-2.26,1.59,11.60,-27.29,6.65,2
-0.38,0.16,-0.92,5.00,-1.22,1.65,11.77,-27.62,7.80,2
-0.38,0.18,-0.91,4.76,-1.65,0.49,11.49,-27.19,7.14,2
-0.39,0.18,-0.93,7.32,-2.69,1.83,11.40,-27.84,7.17,2
-0.38,0.18,-0.91,3.48,-2.20,0.37,11.43,-27.94,7.47,2
-0.39,0.18,-0.92,3.85,-4.64,1.77,11.91,-27.17,7.09,2
-0.38,0.18,-0.92,3.78,-0.92,1.34,11.69,-27.21,7.06,2
-0.39,0.18,-0.93,2.01,-4.09,1.10,11.50,-27.16,7.09,2
-0.38,0.18,-0.91,1.77,-0.12,1.22,10.90,-27.69,8.03,2
-0.39,0.17,-0.93,0.85,-3.42,0.61,12.00,-27.75,8.40,2
-0.39,0.17,-0.92,2.08,0.00,-0.43,11.57,-27.04,7.40,2
-0.39,0.16,-0.92,-8.48,-2.14,0.67,11.62,-26.81,7.62,2
-0.39,0.15,-0.92,-10.25,2.38,0.18,11.60,-26.34,6.91,2
-0.40,0.13,-0.93,-14.22,-1.22,-0.31,10.97,-26.03,7.65,2
-0.39,0.13,-0.92,-7.75,2.01,-1.65,10.52,-25.39,8.22,2
-0.39,0.10,-0.92,-18.01,-0.43,-4.27,10.41,-25.55,9.17,2
-0.40,0.10,-0.92,-15.81,5.13,-7.69,10.30,-24.37,8.91,2
-0.40,0.07,-0.92,-27.89,3.23,-8.36,10.36,-23.79,8.48,2
-0.41,0.03,-0.93,-34.73,3.05,-11.35,10.35,-22.78,10.02,2
-0.40,0.02,-0.92,-26.00,0.43,-4.64,10.71,-22.50,8.74,2
-0.41,-0.02,-0.94,-22.64,-1.83,0.73,10.77,-21.28,10.16,2
-0.41,-0.03,-0.92,-31.56,1.04,-7.02,9.97,-20.31,11.24,2
-0.42,-0.07,-0.92,-36.80,-1.77,-3.85,10.36,-19.59,10.02,2
-0.41,-0.11,-0.93,-14.22,-6.35,-7.08,10.21,-18.82,11.33,2
-0.41,-0.11,-0.92,-10.19,-13.06,-6.23,10.78,-18.90,10.56,2
-0.40,-0.15,-0.92,-17.03,-20.81,-4.76,11.25,-18.58,11.79,2
-0.38,-0.14,-0.93,-5.31,-24.72,3.85,12.08,-18.42,12.71,2
-0.36,-0.16,-0.95,-7.57,-29.66,2.14,12.94,-17.59,11.35,2
-0.33,-0.15,-0.95,-7.87,-17.88,-0.06,13.59,-17.65,12.28,2
-0.32,-0.16,-0.96,6.29,-20.45,1.71,14.11,-17.85,11.67,2
-0.30,-0.18,-0.96,-10.74,-19.10,5.49,14.06,-16.87,12.28,2
-0.28,-0.18,-0.94,1.04,-19.84,2.50,15.10,-17.58,12.38,2
-0.26,-0.18,-0.97,12.39,-17.21,3.91,15.26,-17.27,12.46,2
-0.26,-0.18,-0.97,2.81,-9.58,-1.22,15.28,-17.47,12.68,2
-0.25,-0.18,-0.97,7.26,-9.83,0.31,16.35,-16.98,13.06,2
-0.23,-0.18,-0.97,-1.04,-17.03,4.52,15.93,-17.03,12.59,2
-0.22,-0.19,-0.96,5.37,-13.61,1.04,16.48,-16.82,13.65,2
-0.21,-0.18,-0.98,10.86,-20.87,1.89,16.80,-16.88,13.38,2
-0.19,-0.18,-0.98,0.00,-31.01,4.33,17.90,-17.05,13.05,2
-0.16,-0.18,-0.97,13.67,-24.66,0.37,17.99,-17.26,13.89,2
-0.11,-0.16,-1.06,9.58,-33.45,4.39,19.18,-17.87,13.82,2
-0.10,-0.17,-0.98,0.37,-35.64,-5.31,19.91,-17.97,13.37,2
-0.08,-0.18,-0.99,0.43,-21.24,0.24,20.20,-17.46,14.61,2
-0.07,-0.18,-1.01,12.94,-17.58,0.06,21.23,-17.58,13.33,2
-0.03,-0.15,-0.94,0.31,-38.88,4.52,22.00,-17.61,13.24,2
-0.01,-0.17,-1.04,1.71,-41.44,7.26,22.66,-17.69,13.59,2
0.04,-0.17,-0.99,19.84,-26.12,2.08,23.84,-17.75,12.34,2
0.05,-0.15,-0.97,14.16,-20.69,-2.32,24.52,-19.07,13.44,2
0.06,-0.15,-1.01,11.66,-13.61,0.73,24.65,-18.80,12.70,2
0.09,-0.13,-0.98,13.31,-15.93,5.55,25.21,-19.35,12.90,2
0.08,-0.13,-1.02,1.10,-4.52,3.30,25.70,-19.58,12.67,2
0.09,-0.16,-0.98,-1.46,-4.46,5.68,25.31,-19.43,13.09,2
0.10,-0.13,-1.00,-1.34,-3.72,12.02,26.04,-19.24,12.40,2
0.10,-0.13,-0.98,35.58,-0.98,2.50,25.32,-19.38,11.93,2
0.09,-0.10,-1.01,47.61,-3.11,-2.20,25.72,-20.64,12.82,2
0.09,-0.10,-1.03,3.48,-7.08,2.08,25.52,-20.74,11.32,2
0.10,-0.08,-0.96,2.56,-9.64,3.66,25.13,-20.30,12.67,2
0.11,-0.09,-1.00,-6.77,-5.98,1.34,26.04,-20.75,12.28,2
0.11,-0.09,-1.01,7.63,-3.91,-2.01,26.01,-20.30,11.77,2
0.10,-0.09,-0.98,14.71,0.31,-4.52,26.22,-20.90,12.32,2
0.11,-0.08,-1.01,1.71,-7.57,-2.44,26.06,-20.86,12.17,2
0.11,-0.10,-1.01,7.08,-3.66,-4.88,26.44,-20.73,11.87,2
0.10,-0.10,-0.98,-5.86,-8.36,-1.53,26.70,-20.40,12.67,2
0.11,-0.09,-1.02,14.59,0.92,-1.83,26.67,-21.02,11.61,2
0.12,-0.09,-1.02,-7.51,-4.09,1.40,27.00,-20.70,11.90,2
0.11,-0.11,-0.99,8.67,0.85,-0.98,27.04,-20.69,11.83,2
0.11,-0.10,-0.99,-4.03,-5.49,-0.18,26.51,-20.52,11.40,2
0.12,-0.10,-1.00,-9.70,-5.92,0.98,26.94,-20.57,11.05,2
0.11,-0.12,-1.00,11.47,-1.89,-1.28,26.54,-20.29,12.06,2
0.13,-0.11,-1.02,-3.17,-19.84,1.40,27.01,-19.71,12.16,2
0.13,-0.11,-0.94,5.00,-22.09,-2.26,27.32,-19.71,12.06,2
0.15,-0.10,-1.00,23.44,-4.94,-1.89,26.76,-19.43,12.13,2
0.16,-0.07,-1.00,36.32,-6.10,-4.39,26.92,-20.20,11.88,2
0.16,-0.04,-1.01,33.14,-10.99,-2.32,26.84,-20.76,11.57,2
0.16,-0.03,-1.02,20.45,-12.33,0.73,27.53,-21.14,11.34,2
0.19,0.01,-0.97,27.34,-19.35,6.16,27.34,-21.75,10.00,2
0.19,0.01,-0.99,7.14,-8.79,2.26,27.86,-21.98,10.41,2
0.20,0.01,-1.00,3.48,-4.58,2.93,27.98,-21.69,10.68,2
0.20,0.00,-0.98,5.68,-10.99,2.99,28.63,-21.85,10.34,2
0.21,0.01,-1.00,6.84,-2.81,0.43,27.64,-22.14,10.02,2
0.21,-0.00,-0.98,-2.56,-8.36,3.42,27.75,-22.13,10.21,2
0.21,-0.00,-0.99,-1.34,-2.08,2.08,27.95,-21.75,9.80,2
0.21,-0.01,-0.98,-2.62,-7.51,2.14,28.00,-21.67,11.36,2
0.21,-0.00,-0.98,1.10,-1.65,0.92,28.15,-20.78,10.51,2
0.22,-0.02,-0.98,2.08,-0.31,2.44,27.76,-21.06,10.50,2
0.21,-0.02,-0.98,4.76,0.98,1.22,28.04,-21.28,10.42,2
0.20,-0.02,-0.99,1.46,4.39,3.54,27.76,-20.61,10.56,2
0.20,-0.02,-0.98,-3.05,8.48,1.22,26.97,-20.83,10.56,2
0.17,-0.05,-1.01,0.61,12.88,-0.92,26.38,-19.87,10.94,2
0.17,-0.03,-0.98,17.21,0.12,4.52,26.81,-20.74,10.39,2
0.17,0.00,-0.99,23.50,5.92,5.07,26.77,-21.48,10.78,2
0.15,0.00,-0.98,6.71,10.74,5.62,26.49,-21.61,10.00,2
0.14,0.01,-1.01,13.06,8.73,4.64,26.07,-21.44,11.21,2
0.14,0.02,-0.99,5.00,3.60,5.00,25.57,-21.95,10.72,2
0.13,0.03,-1.00,15.93,4.88,6.59,26.32,-21.83,10.36,2
0.13,0.01,-0.98,-5.43,2.87,6.53,26.01,-22.31,10.71,2
0.11,0.02,-1.00,9.70,9.52,7.02,25.06,-22.92,11.40,2
0.11,-0.06,-1.07,-26.18,0.85,0.06,25.09,-21.39,10.77,2
0.12,-0.03,-1.00,-0.79,-1.83,-0.67,24.84,-20.87,10.89,2
0.11,-0.02,-0.99,5.07,-0.43,-0.43,24.99,-20.96,11.06,2
0.12,-0.04,-1.01,-0.85,6.90,4.52,24.06,-20.98,10.58,2
0.08,-0.01,-1.02,8.06,6.29,4.52,24.00,-20.79,11.73,2
0.11,0.01,-0.98,18.31,7.08,3.23,24.06,-21.11,11.73,2
0.07,0.01,-0.99,26.31,19.59,-0.85,23.84,-20.76,10.67,2
0.03,0.04,-1.02,38.94,28.44,-4.39,22.95,-22.19,9.80,2
0.02,0.06,-0.99,23.68,15.14,-2.87,23.18,-22.80,10.36,2
-0.00,0.08,-1.00,22.58,24.29,-3.60,22.00,-23.44,10.34,2
-0.05,0.12,-1.02,24.84,24.78,-3.66,21.97,-23.89,9.90,2
-0.05,0.12,-1.01,4.21,14.53,0.73,20.97,-23.85,9.61,2
-0.06,0.12,-1.00,17.64,18.62,-0.55,21.04,-24.61,10.02,2
-0.08,0.12,-1.00,-3.05,12.21,-0.73,20.51,-23.72,10.13,2
-0.10,0.11,-1.00,-2.62,14.16,1.40,20.28,-24.23,9.79,2
-0.12,0.09,-0.99,-12.82,11.41,1.77,19.69,-23.29,10.16,2
-0.13,0.09,-1.00,-0.61,10.86,0.18,19.58,-23.28,10.40,2
-0.14,0.08,-0.99,-2.62,7.51,0.55,18.98,-22.69,9.62,2
-0.14,0.04,-1.00,-7.93,1.89,3.11,18.70,-22.62,11.39,2
-0.15,0.06,-0.99,7.08,0.79,0.37,18.49,-22.67,10.79,2
-0.15,0.06,-1.00,0.85,-3.85,1.34,18.40,-21.96,10.82,2
-0.15,0.06,-1.01,0.79,-1.10,1.95,18.84,-21.79,10.61,2
-0.15,0.05,-0.99,-1.89,-2.56,1.46,18.57,-21.83,10.38,2
-0.15,0.05,-1.00,-1.40,0.37,1.04,18.85,-22.19,10.40,2
-0.15,0.04,-0.99,-9.09,0.24,1.28,18.58,-21.37,10.93,2
-0.16,0.02,-1.00,-13.37,-1.04,3.66,18.31,-21.64,11.27,2
-0.16,0.01,-1.01,-40.41,-5.68,1.46,18.48,-20.69,12.40,2
-0.15,-0.05,-0.99,-15.32,-0.98,2.44,18.64,-20.37,12.59,2
-0.16,-0.06,-1.01,-27.77,-6.47,5.62,19.26,-20.30,12.45,2
-0.14,-0.12,-0.99,-40.47,-7.39,4.09,18.84,-18.64,13.83,2
-0.14,-0.15,-0.98,-32.71,-8.91,4.70,19.14,-17.76,13.02,2
-0.13,-0.20,-0.99,-32.53,-13.61,5.31,19.56,-16.32,13.88,2
-0.11,-0.25,-0.98,-45.47,-19.35,11.35,19.84,-15.26,14.32,2
-0.11,-0.26,-0.96,-13.18,-3.30,2.69,20.52,-14.28,14.15,2
-0.11,-0.28,-0.98,-18.86,-5.74,1.83,20.56,-13.79,14.32,2
-0.10,-0.31,-0.94,-13.24,-4.70,-2.08,20.50,-13.29,14.81,2
-0.10,-0.33,-0.94,-20.32,-4.64,2.93,20.47,-12.93,13.96,2
-0.10,-0.37,-0.95,-10.93,-4.03,1.28,20.42,-12.01,14.58,2
-0.09,-0.37,-0.92,-15.08,-4.76,-0.73,20.12,-10.86,13.94,2
-0.09,-0.39,-0.94,-13.43,-4.15,1.34,20.41,-10.94,14.26,2
-0.10,-0.40,-0.93,-0.31,-3.78,0.49,20.34,-10.88,14.59,2
-0.09,-0.40,-0.92,-4.21,-3.11,2.26,20.34,-10.82,14.89,2
-0.09,-0.41,-0.91,-2.50,-2.99,2.14,21.06,-10.68,14.42,2
-0.09,-0.42,-0.92,-1.34,-3.60,1.46,21.00,-10.25,14.33,2
-0.09,-0.42,-0.91,-0.37,-2.99,1.53,20.86,-10.13,14.84,2
-0.09,-0.43,-0.91,7.26,-3.17,0.12,21.18,-10.05,14.82,2
-0.09,-0.42,-0.92,8.30,-3.23,0.67,20.52,-10.17,14.31,2
-0.09,-0.42,-0.91,6.77,-3.36,0.61,20.32,-10.47,13.87,2
-0.09,-0.41,-0.92,8.85,-3.42,0.79,20.48,-10.05,15.08,2
-0.09,-0.41,-0.91,0.43,-3.11,2.01,20.78,-10.23,14.98,2
-0.09,-0.41,-0.92,10.50,-2.99,0.79,20.40,-10.39,15.38,2
-0.09,-0.41,-0.92,-0.85,-2.62,3.54,20.52,-10.07,14.81,2
-0.09,-0.42,-0.89,7.45,-4.76,2.20,20.62,-9.48,14.32,2
-0.08,-0.38,-0.93,46.57,-7.57,3.48,20.37,-10.88,14.44,2
-0.08,-0.35,-0.96,50.84,-8.91,-1.10,20.36,-11.54,14.61,2
-0.06,-0.28,-0.92,74.71,-7.81,-0.79,20.07,-13.09,13.85,2
-0.08,-0.24,-1.02,63.60,0.55,1.65,20.19,-14.67,14.25,2
-0.07,-0.18,-0.99,56.34,-5.92,1.95,20.20,-16.50,13.67,2
-0.07,-0.11,-1.01,50.90,-0.43,4.15,20.59,-18.41,13.46,2
-0.08,-0.08,-1.00,29.24,-1.28,2.56,20.70,-19.86,12.48,2
-0.08,-0.06,-1.01,40.71,0.18,-0.37,21.02,-20.61,11.95,2
-0.08,-0.00,-1.00,48.77,-0.18,1.95,21.79,-21.23,12.63,2
-0.09,0.03,-1.01,43.33,-3.05,1.16,20.96,-23.16,11.71,2
-0.09,0.06,-1.00,31.92,-3.78,1.34,21.22,-23.55,11.38,2
-0.08,0.09,-1.01,66.35,-4.46,0.06,20.56,-24.58,10.51,2
-0.08,0.19,-0.99,67.75,-5.49,3.66,21.04,-26.37,9.47,2
-0.08,0.23,-0.97,61.46,-4.64,-0.55,21.11,-27.08,8.75,2
-0.08,0.26,-0.97,42.72,-5.80,1.71,21.00,-28.56,7.39,2
-0.08,0.33,-0.94,49.68,-4.94,0.06,21.12,-29.32,6.88,2
-0.07,0.35,-0.95,40.10,-6.04,1.46,20.94,-30.11,5.13,2
-0.08,0.37,-0.92,39.18,-3.97,-1.40,21.59,-30.63,5.76,2
-0.07,0.39,-0.93,18.19,-3.85,0.55,21.09,-30.71,4.53,2
-0.07,0.41,-0.91,25.88,-3.30,0.31,21.22,-31.27,4.49,2
-0.07,0.43,-0.91,13.92,-3.36,1.04,21.53,-31.48,4.88,2
-0.07,0.43,-0.91,16.78,-4.39,0.73,21.35,-31.56,4.11,2
-0.07,0.44,-0.90,14.40,-2.62,-0.06,21.22,-31.97,3.55,2
-0.07,0.45,-0.90,11.11,-4.03,1.04,21.33,-31.98,2.73,2
-0.07,0.46,-0.89,10.13,-2.87,0.61,21.69,-32.09,2.92,2
-0.07,0.46,-0.89,7.14,-4.09,1.46,21.41,-31.65,3.76,2
-0.07,0.46,-0.90,10.38,-4.52,1.40,21.31,-32.59,1.72,2
-0.06,0.47,-0.88,14.34,-4.70,0.98,21.81,-33.52,2.09,2
-0.06,0.47,-0.89,6.77,-4.88,2.26,22.18,-33.57,1.90,2
-0.06,0.50,-0.87,13.67,-6.04,3.85,22.40,-33.33,2.38,2
-0.06,0.49,-0.88,3.48,-5.25,0.79,22.46,-33.70,1.92,2
-0.05,0.50,-0.88,27.95,-8.24,2.69,22.24,-34.47,1.00,2
-0.05,0.51,-0.86,11.11,-6.47,4.52,23.22,-33.86,1.57,2
-0.05,0.53,-0.86,11.96,-8.97,7.45,22.72,-34.19,0.79,2
-0.04,0.53,-0.86,12.51,-8.79,4.76,22.86,-34.31,0.52,2
-0.03,0.52,-0.85,8.36,-15.44,3.42,22.79,-34.40,0.11,2
-0.03,0.52,-0.85,3.48,-11.72,1.65,22.62,-33.50,0.63,2
-0.03,0.52,-0.87,-2.08,-16.85,3.78,22.79,-34.31,0.74,2
-0.01,0.52,-0.86,-3.91,-13.18,3.60,23.05,-34.31,1.12,2
0.01,0.50,-0.86,-11.60,-16.24,2.38,22.92,-33.53,1.10,2
0.02,0.49,-0.88,-19.17,-14.04,4.03,23.29,-33.39,1.44,2
0.02,0.45,-0.89,-25.33,-19.10,3.97,23.62,-32.93,1.55,2
0.04,0.44,-0.90,-19.78,-14.65,6.84,24.27,-32.17,2.70,2
0.06,0.42,-0.92,-19.71,-21.06,5.68,24.15,-31.73,2.69,2
0.06,0.41,-0.91,-13.55,-13.18,5.98,23.94,-31.80,3.92,2
0.07,0.38,-0.92,-25.02,-12.94,5.43,24.41,-31.71,5.03,2
0.08,0.36,-0.94,-15.81,-15.14,6.35,24.39,-31.63,4.86,2
0.09,0.33,-0.95,-37.78,-17.58,7.81,24.77,-31.25,4.85,2
0.10,0.30,-0.95,-22.34,-11.05,6.65,25.27,-30.55,6.56,2
0.12,0.26,-0.96,-37.35,-19.10,3.36,25.73,-29.70,6.49,2
0.13,0.22,-0.98,-44.13,-11.54,5.92,25.79,-28.16,7.35,2
0.14,0.18,-0.96,-40.65,-17.03,2.26,25.61,-27.21,7.23,2
0.15,0.14,-1.00,-27.10,-6.65,2.87,25.12,-25.83,8.74,2
0.16,0.10,-0.98,-36.07,-10.13,3.42,25.40,-25.46,9.25,2
0.16,0.07,-1.00,-38.51,-9.28,0.98,24.98,-23.74,10.45,2
0.17,0.03,-0.99,-33.39,-6.23,0.18,25.20,-22.68,10.31,2
0.17,-0.02,-0.99,-30.03,-4.15,-1.83,25.29,-21.36,11.38,2
0.17,-0.06,-0.99,-27.83,-3.42,-2.56,24.80,-20.29,11.55,2
0.17,-0.06,-1.00,-15.38,-2.26,-4.21,24.76,-19.37,12.68,2
0.16,-0.11,-1.01,-23.07,-0.98,-7.81,25.26,-18.64,12.76,2
0.16,-0.14,-0.96,-23.62,-2.14,-6.23,24.96,-17.36,12.33,2
0.17,-0.17,-0.99,-23.74,2.62,-7.57,23.85,-16.24,12.54,2
0.15,-0.21,-0.98,-25.21,-1.77,-7.51,24.18,-16.05,13.51,2
0.15,-0.23,-0.96,-20.39,1.71,-8.36,25.11,-15.38,13.78,2
0.15,-0.25,-0.97,-11.41,-0.61,-6.77,24.63,-13.99,12.71,2
0.14,-0.27,-0.95,-19.65,0.73,-4.21,24.98,-13.60,13.62,2
0.14,-0.31,-0.97,-12.33,2.20,-7.08,24.45,-13.07,13.89,2
0.13,-0.32,-0.95,-21.67,2.01,-5.37,24.33,-12.40,14.05,2
0.13,-0.34,-0.93,-19.23,-0.49,-6.41,24.85,-11.07,13.89,2
0.12,-0.36,-0.93,-4.09,0.49,-2.99,24.17,-11.80,13.46,2
0.11,-0.36,-0.93,-5.25,0.92,-3.72,24.13,-11.35,15.20,2
0.10,-0.38,-0.92,-4.94,3.72,-5.07,23.88,-11.56,13.46,2
0.10,-0.38,-0.94,-0.92,3.30,-5.07,24.07,-10.62,12.87,2
0.09,-0.39,-0.92,-2.38,4.27,-4.76,23.41,-10.31,14.06,2
0.08,-0.40,-0.93,2.69,0.67,-2.93,23.68,-10.80,14.45,2
0.08,-0.39,-0.93,3.60,2.50,-4.15,23.07,-10.40,13.26,2
0.08,-0.40,-0.93,2.08,2.81,-5.31,23.11,-9.79,14.92,2
0.06,-0.39,-0.93,11.29,5.62,-7.08,22.88,-10.06,14.28,2
0.05,-0.39,-0.93,5.55,1.46,-7.26,23.12,-10.31,14.22,2
0.04,-0.39,-0.95,8.24,3.91,-5.25,22.71,-9.88,14.26,2
0.03,-0.38,-0.92,20.94,8.24,-7.63,22.60,-10.24,14.33,2
0.01,-0.37,-0.94,8.30,3.36,-8.79,22.74,-10.55,14.33,2
0.00,-0.37,-0.95,20.81,10.31,-9.22,21.55,-10.84,13.81,2
0.01,-0.35,-0.95,13.55,4.09,-4.46,21.57,-10.80,13.95,2
-0.02,-0.36,-0.94,10.07,3.30,-7.02,21.29,-10.94,13.46,2
-0.02,-0.33,-0.95,16.11,6.77,-6.10,21.44,-10.97,13.37,2
-0.04,-0.32,-0.95,28.14,9.95,-11.90,21.53,-11.27,13.23,2
-0.05,-0.30,-0.97,28.99,9.09,-9.83,21.13,-12.49,14.21,2
-0.07,-0.28,-0.98,23.13,8.36,-9.64,20.90,-13.26,13.72,2
-0.09,-0.26,-0.97,20.94,10.80,-7.08,21.11,-13.75,14.48,2
-0.10,-0.25,-0.98,20.20,9.40,-4.52,20.28,-14.27,13.22,2
-0.10,-0.22,-0.98,27.59,13.24,-8.00,19.60,-14.84,14.87,2
-0.13,-0.19,-0.98,26.67,16.72,-7.26,20.03,-16.25,14.01,2
-0.16,-0.17,-0.99,19.17,14.95,-3.72,19.19,-16.74,13.20,2
-0.16,-0.16,-0.98,31.74,8.18,-2.69,18.86,-16.64,13.13,2
-0.19,-0.13,-0.99,36.44,7.32,-9.40,19.12,-18.24,11.93,2
-0.19,-0.09,-0.99,31.01,10.93,-2.26,18.74,-18.90,12.76,2
-0.20,-0.06,-0.97,27.40,5.43,-3.78,18.71,-19.23,12.46,2
-0.22,-0.04,-1.00,22.09,9.03,-0.61,17.98,-19.97,12.30,2
-0.22,-0.03,-0.98,1.28,6.90,-2.44,17.70,-20.34,10.84,2
-0.23,-0.01,-0.98,6.29,2.62,2.14,18.02,-20.46,10.69,2
-0.24,-0.02,-0.98,8.48,1.28,0.49,17.66,-20.34,12.81,2
-0.24,-0.02,-0.99,3.66,-3.60,2.50,17.91,-20.35,12.43,2
-0.24,-0.02,-0.98,4.58,-3.11,1.89,17.69,-20.45,12.30,2
-0.25,-0.02,-0.98,3.85,-3.11,1.16,17.61,-20.28,11.74,2
-0.24,-0.02,-0.99,5.25,-2.75,1.89,17.77,-20.43,12.60,2
-0.24,-0.02,-0.98,5.00,-3.97,1.95,17.50,-20.43,11.76,2
-0.24,-0.02,-0.98,3.42,-2.87,1.40,17.30,-20.53,11.77,2
-0.24,-0.02,-0.99,3.97,-3.54,1.59,17.69,-20.30,11.60,2
-0.24,-0.02,-0.98,3.78,-2.93,1.40,17.18,-20.28,11.89,2
-0.24,-0.02,-0.98,3.78,-3.17,2.08,17.55,-20.36,11.62,2
-0.24,-0.02,-0.99,4.94,-2.87,1.65,17.79,-20.18,11.63,2
-0.23,-0.02,-0.99,3.11,-3.85,2.01,17.69,-20.09,11.56,2
-0.24,-0.02,-0.98,3.85,-2.99,1.65,17.36,-20.25,11.74,2
-0.23,-0.02,-0.98,3.42,-4.21,2.08,17.42,-19.73,12.48,2
-0.23,-0.03,-0.98,1.34,-6.65,3.54,18.24,-20.09,12.19,2
-0.22,-0.06,-0.99,9.52,-7.75,6.41,17.60,-20.01,12.40,2
-0.21,-0.01,-0.98,14.40,-16.97,13.49,17.75,-20.29,11.23,2
-0.17,0.01,-1.03,41.20,-35.16,20.26,18.85,-21.29,10.69,2
-0.18,0.04,-0.99,42.66,-13.61,9.03,18.98,-22.01,10.39,2
-0.17,0.04,-0.98,8.91,-18.98,8.54,19.30,-23.05,10.91,2
-0.12,0.06,-1.01,22.34,-40.65,14.65,20.52,-23.16,10.03,2
-0.11,0.06,-1.02,-4.33,-25.94,8.67,20.07,-23.47,11.68,2
-0.09,0.05,-1.01,-31.07,-16.11,9.34,21.04,-22.31,10.84,2
-0.07,-0.06,-1.02,-79.16,-31.13,13.37,21.36,-20.13,12.71,2
-0.04,-0.09,-0.98,4.52,-12.76,6.16,21.55,-19.52,12.81,2
-0.03,-0.05,-1.01,17.76,-3.91,6.23,22.64,-20.48,11.82,2
-0.05,-0.09,-1.02,2.44,-6.10,8.36,22.83,-20.94,12.04,2
-0.03,-0.05,-0.98,18.19,1.77,-1.16,22.64,-21.14,13.18,2
-0.01,-0.06,-0.99,12.21,4.46,-8.12,22.63,-20.86,11.98,2
-0.04,-0.04,-1.02,8.12,4.64,-5.86,22.09,-21.42,13.35,2
-0.06,-0.05,-1.01,11.41,4.27,1.34,22.33,-21.67,12.17,2
-0.08,-0.05,-0.99,-55.97,-7.75,22.22,22.18,-21.58,11.78,2
-0.07,-0.06,-1.04,11.47,-5.31,2.38,22.72,-21.87,12.59,2
-0.05,-0.03,-1.00,7.81,-5.13,6.47,23.19,-22.23,12.37,2
-0.04,-0.03,-1.02,12.88,-6.35,3.05,22.64,-22.20,12.48,2
-0.04,-0.02,-1.03,11.11,-7.20,1.28,22.73,-21.87,12.50,2
-0.03,-0.03,-1.00,9.22,-12.21,3.60,23.25,-22.34,12.05,2
-0.03,-0.01,-1.02,0.79,-5.98,2.44,23.60,-22.18,12.18,2
-0.02,-0.02,-1.00,11.47,-6.04,-0.85,23.54,-22.60,11.60,2
-0.03,-0.00,-1.01,24.23,0.00,-4.58,22.74,-22.22,11.23,2
-0.02,0.01,-1.01,19.78,-2.75,-4.33,22.97,-22.74,11.08,2
-0.03,0.03,-1.01,10.50,-3.48,-0.61,22.77,-22.91,10.93,2
-0.02,0.03,-1.00,9.58,-0.73,-1.77,22.40,-22.39,10.61,2
-0.02,0.04,-1.02,-0.73,-2.69,1.71,22.31,-22.75,10.82,2
-0.02,0.02,-1.01,-0.43,-7.20,2.20,22.53,-22.68,10.57,2
-0.02,0.02,-1.01,1.46,-3.85,3.42,22.60,-22.88,11.00,2
-0.02,0.02,-1.01,-2.20,-4.21,2.75,22.53,-22.16,10.74,2
-0.02,0.02,-1.02,2.20,-3.60,2.01,22.56,-21.97,11.98,2
-0.01,0.01,-1.01,0.85,-6.71,1.89,23.13,-21.91,11.28,2
-0.01,0.01,-1.01,0.55,-4.27,2.08,23.06,-22.50,11.76,2
-0.01,0.01,-1.02,2.50,-4.52,0.67,23.12,-22.25,10.75,2
-0.01,0.00,-1.01,1.89,-3.17,1.28,23.30,-22.11,11.51,2
-0.00,-0.01,-1.00,4.21,-4.27,0.18,23.67,-22.06,10.68,2
-0.00,0.00,-1.01,2.26,-2.32,2.08,23.55,-21.90,11.05,2
-0.00,0.00,-1.01,3.60,-2.01,1.65,23.68,-22.01,10.77,2
-0.00,-0.00,-1.01,1.59,-3.17,2.44,23.72,-22.41,11.49,2
-0.00,0.00,-1.01,5.43,-1.65,2.38,23.57,-22.40,12.61,2
-0.01,-0.00,-1.01,4.21,-3.36,1.77,23.22,-22.18,11.85,2
0.00,-0.00,-1.01,1.65,-4.58,2.38,23.06,-21.78,11.45,2
-0.00,-0.00,-1.01,2.56,-3.30,2.20,23.10,-22.33,11.43,2
0.00,-0.01,-1.01,1.34,-3.42,0.79,23.21,-21.80,11.61,2
0.00,-0.01,-1.01,3.72,-1.65,0.31,23.38,-21.03,11.11,2
-0.00,-0.01,-1.02,4.46,-2.20,0.37,23.19,-21.90,11.50,2
-0.00,-0.01,-1.00,1.77,-3.30,2.20,23.51,-21.52,11.33,2
-0.00,-0.01,-1.02,1.89,-2.69,3.48,23.06,-21.81,11.32,2
0.00,-0.01,-1.00,0.18,-2.01,3.11,23.33,-21.22,11.12,2
-0.00,-0.01,-1.01,5.55,-2.62,2.32,23.33,-21.66,11.43,2
0.00,-0.01,-1.01,7.63,-0.92,1.10,23.14,-21.75,11.95,2
-0.00,-0.01,-1.01,2.38,-2.93,0.98,23.40,-21.74,10.88,2
-0.00,-0.01,-1.00,2.99,-2.87,0.98,22.81,-22.22,11.55,2
-0.00,-0.01,-1.01,3.72,-3.85,1.22,23.55,-21.67,11.15,2
-0.00,-0.02,-1.01,1.71,-4.09,1.04,23.13,-21.55,11.24,2
0.00,-0.02,-1.01,2.01,-3.36,1.46,23.35,-21.13,11.79,2
0.00,-0.02,-1.00,0.31,-4.15,1.89,23.46,-21.74,11.57,2
0.00,-0.02,-1.01,3.60,-2.44,2.08,23.73,-21.22,11.93,2
0.00,-0.02,-1.01,6.41,-2.50,1.16,23.99,-21.89,12.08,2
0.00,-0.02,-1.01,2.32,-2.75,1.71,23.54,-22.05,10.64,2
-0.00,-0.02,-1.01,5.13,-2.38,1.83,23.65,-21.81,11.87,2
0.00,-0.03,-1.01,2.93,-3.85,1.95,23.52,-21.45,10.99,2
0.00,-0.03,-1.01,4.09,-2.50,1.83,23.49,-21.15,11.35,2
0.00,-0.02,-1.01,7.81,-3.30,2.44,23.54,-22.18,11.27,2
0.00,-0.02,-1.00,5.98,-4.21,3.11,23.57,-21.84,11.11,2
0.00,-0.02,-1.01,5.07,-3.05,1.83,23.60,-21.78,11.29,2
0.00,-0.02,-1.01,5.49,-1.46,1.46,23.88,-21.26,11.35,2
0.00,-0.02,-1.00,2.20,-4.09,2.14,23.62,-21.85,12.04,2
0.00,-0.02,-1.01,4.64,-2.20,1.40,23.56,-21.83,11.27,2
0.00,-0.02,-1.01,5.43,-2.01,1.40,23.85,-21.67,10.91,2
0.00,-0.02,-1.01,5.31,-2.56,2.14,23.94,-21.89,10.25,2
0.00,-0.02,-1.01,3.97,-2.62,1.46,23.84,-22.51,10.77,2
0.00,-0.02,-1.01,8.00,-2.20,0.43,23.61,-22.19,11.41,2
0.00,-0.02,-1.01,4.33,-2.01,1.65,23.56,-22.03,10.97,2
0.00,-0.01,-1.01,4.94,-1.83,2.08,23.25,-21.92,11.40,2
0.00,-0.02,-1.01,2.50,-2.99,1.46,23.41,-21.81,12.23,2
0.00,-0.02,-1.01,4.09,-2.56,1.95,23.40,-21.90,11.65,2
0.00,-0.02,-1.01,3.72,-2.62,1.46,23.95,-21.70,10.51,2
0.00,-0.01,-1.01,5.07,-2.38,1.28,23.47,-21.78,10.25,2
0.00,-0.02,-1.01,3.36,-2.75,1.34,23.29,-22.13,11.01,2
-0.00,-0.02,-1.01,5.19,-2.08,1.28,23.45,-22.20,10.74,2
-0.00,-0.02,-1.01,5.19,-2.93,1.10,23.49,-22.28,11.19,2
-0.00,-0.02,-1.01,4.82,-2.01,1.83,24.08,-21.63,11.30,2
0.00,-0.01,-1.01,4.52,-3.36,1.16,23.57,-21.80,11.41,2
-0.01,-0.01,-1.01,9.03,-2.08,0.00,23.12,-21.53,11.34,2
-0.01,-0.01,-1.01,7.02,-2.56,0.79,23.44,-22.29,9.99,2
-0.00,-0.01,-1.01,5.62,-0.18,1.71,23.62,-21.97,10.77,2
0.00,-0.01,-1.00,4.58,-4.76,0.49,23.71,-21.96,10.57,2
-0.00,-0.01,-1.00,4.58,-1.95,1.46,23.43,-21.80,10.84,2
-0.00,-0.00,-1.02,1.95,-2.93,1.46,23.61,-21.77,10.34,2
0.00,-0.01,-1.01,0.85,-0.37,1.71,23.80,-22.18,9.39,2
-0.01,-0.03,-1.00,-2.50,0.55,3.36,23.50,-21.86,11.54,2
-0.01,-0.03,-1.01,-8.67,2.20,6.04,23.49,-22.05,11.07,2
0.00,-0.04,-0.96,0.73,3.23,0.43,22.79,-21.68,10.28,2
-0.02,-0.04,-1.02,9.58,-0.55,1.46,23.02,-22.24,11.51,2
-0.01,-0.03,-1.00,3.54,-4.03,1.46,23.14,-21.92,11.23,2
-0.02,-0.04,-1.01,5.98,-4.82,0.92,23.40,-21.28,11.22,2
-0.02,-0.02,-1.03,2.87,-5.19,1.95,23.46,-22.39,11.57,2
-0.00,-0.03,-0.99,1.71,-5.43,1.40,23.60,-22.22,10.62,2
-0.01,-0.03,-1.01,6.10,-2.50,1.46,23.97,-21.98,11.57,2
-0.01,-0.03,-1.01,7.02,-3.66,0.85,23.73,-21.77,11.05,2
0.00,-0.02,-0.99,8.24,-2.38,0.98,23.66,-22.14,11.45,2
-0.01,-0.01,-1.02,6.29,-4.70,0.49,23.52,-22.33,11.05,2
-0.01,-0.01,-1.01,4.09,-3.91,3.23,23.71,-22.49,10.73,2
-0.01,-0.02,-1.01,7.81,-1.10,1.28,24.35,-22.44,11.39,2
-0.01,-0.02,-1.00,-4.15,-2.20,2.75,23.68,-22.25,12.56,2
-0.01,-0.03,-1.01,0.73,-1.77,3.30,23.25,-21.37,13.09,2
-0.01,-0.03,-1.01,-5.68,-6.41,4.58,22.95,-22.03,11.71,2
-0.00,-0.03,-0.99,2.26,-4.70,2.99,23.14,-21.69,12.50,2
-0.01,-0.04,-1.02,2.44,-5.68,4.76,23.71,-21.47,12.34,2
0.00,-0.04,-1.02,15.20,-4.27,2.32,23.62,-21.57,12.22,2
0.00,-0.04,-1.02,0.06,-7.08,5.49,23.57,-21.81,11.96,2
-0.02,-0.00,-1.05,44.80,0.79,-1.59,23.75,-23.21,12.00,2
0.00,0.02,-1.03,-9.46,-6.59,7.87,23.61,-22.84,11.12,2
0.01,-0.01,-1.01,-21.97,-11.60,8.24,23.44,-22.35,11.85,2
0.02,-0.01,-0.98,-10.68,-10.25,3.30,24.07,-21.70,11.82,2
0.02,-0.02,-1.03,2.26,-11.72,3.66,23.84,-22.30,11.02,2
0.04,-0.03,-0.99,-16.54,-6.90,6.04,24.10,-21.24,11.63,2
0.04,-0.05,-1.03,-21.36,-5.00,6.29,23.80,-21.47,11.79,2
0.04,-0.09,-0.94,-23.93,-4.76,5.43,23.61,-20.25,11.91,2
0.05,-0.08,-0.92,6.96,-5.49,-2.50,24.18,-19.23,11.93,2
0.04,-0.08,-1.04,27.10,2.01,-2.62,23.79,-20.98,11.39,2
0.05,-0.03,-0.98,-5.13,-3.66,-5.25,23.93,-20.90,12.00,2
0.03,-0.05,-1.00,8.73,-1.04,3.72,24.12,-20.84,12.24,2
0.03,-0.05,-1.02,10.74,-3.11,0.85,23.94,-20.10,11.79,2
0.04,-0.04,-1.02,1.53,-5.31,0.73,23.52,-21.00,12.22,2
0.03,-0.04,-1.00,5.62,-2.50,-6.59,24.13,-21.25,11.89,2
-0.00,-0.07,-1.08,-2.56,-2.81,-4.82,23.74,-20.92,12.22,2
0.03,-0.05,-0.99,9.40,0.12,-7.02,24.56,-21.29,11.55,2
0.03,-0.05,-1.01,4.27,-0.37,-2.69,23.94,-20.89,13.22,2
0.03,-0.05,-1.01,7.26,-0.98,0.98,23.66,-21.02,12.33,2
0.03,-0.05,-1.00,-2.20,-2.14,1.40,24.16,-20.47,10.47,2
0.02,-0.05,-1.01,1.22,0.67,4.21,23.65,-20.91,12.22,2
0.02,-0.05,-1.01,2.01,-1.77,1.95,23.65,-20.56,12.66,2
0.02,-0.06,-1.01,5.62,0.12,4.94,24.23,-20.80,12.30,2
0.02,-0.06,-1.01,6.35,0.43,3.97,23.50,-20.24,11.76,2
0.02,-0.06,-0.98,4.09,1.89,8.30,23.23,-20.64,12.26,2
0.01,-0.04,-1.04,15.38,-3.54,3.05,23.12,-20.74,11.90,2
0.02,-0.04,-0.99,0.92,-6.47,12.02,23.33,-20.70,11.95,2
0.03,-0.04,-1.04,-0.43,-7.26,11.05,22.79,-20.62,12.43,2
0.03,-0.04,-0.99,9.46,-6.90,3.97,23.85,-20.68,11.36,2
0.04,-0.04,-1.02,9.83,-4.33,1.16,23.08,-20.58,11.94,2
0.03,-0.05,-1.00,7.08,-2.56,0.00,23.40,-20.80,11.54,2
0.03,-0.02,-1.01,16.17,2.01,-3.66,22.95,-21.29,13.07,2
0.02,-0.03,-1.02,8.79,5.13,-1.28,23.51,-21.44,12.81,2
0.03,-0.03,-1.02,-3.66,0.55,-0.24,22.66,-20.75,11.90,2
0.01,-0.04,-0.97,0.43,-1.89,0.24,22.96,-20.72,11.50,2
0.01,-0.04,-1.03,8.00,-1.59,0.85,22.51,-20.40,11.57,2
0.03,-0.03,-1.00,9.89,-4.52,-3.72,22.56,-20.53,10.96,2
0.03,-0.01,-0.96,-1.34,-11.41,10.07,22.80,-20.64,11.45,2
0.03,-0.04,-1.01,2.56,-1.65,4.76,23.24,-21.25,12.49,2
0.03,-0.05,-1.01,1.40,-5.92,9.58,22.66,-21.30,12.26,2
0.04,-0.03,-1.04,-15.99,-2.62,4.82,23.19,-20.50,12.21,2
0.04,-0.07,-0.98,-13.24,-8.54,3.30,23.12,-19.18,11.28,2
0.05,-0.01,-1.08,-5.49,-5.07,1.71,23.38,-19.71,12.37,2
0.06,-0.10,-1.00,12.88,-1.22,2.14,23.38,-19.14,11.79,2
0.03,-0.09,-0.97,0.31,-3.36,2.20,23.11,-18.96,12.45,2
0.05,-0.05,-1.01,21.24,0.37,4.82,22.86,-19.49,11.34,2
0.03,-0.07,-1.04,6.59,1.65,-4.15,23.51,-19.71,11.62,2
0.04,-0.07,-1.00,7.75,1.34,-2.01,23.16,-19.69,11.55,2
0.02,-0.06,-1.01,-2.32,4.21,-2.01,22.96,-19.52,12.11,2
0.03,-0.07,-1.01,4.94,-1.46,0.31,22.74,-19.67,10.78,2
0.03,-0.05,-1.00,8.79,-2.50,-0.12,22.96,-20.03,12.39,2
0.03,-0.06,-1.01,11.41,-4.94,-0.73,22.74,-20.02,11.07,2
0.02,-0.06,-0.97,29.30,-5.37,0.12,22.47,-20.01,10.63,2
0.03,0.01,-1.03,14.10,2.99,8.24,23.12,-20.61,11.38,2
0.02,-0.03,-0.98,2.32,-1.83,4.64,22.42,-20.97,11.65,2
0.03,-0.01,-1.02,16.97,0.12,8.36,22.86,-20.96,11.27,2
0.02,-0.00,-1.02,5.31,-3.91,4.46,22.45,-21.34,11.94,2
0.02,-0.04,-1.01,23.01,-1.71,1.28,23.10,-20.84,10.89,2
0.03,0.01,-1.02,33.08,-4.70,-1.46,23.12,-21.28,10.62,2
0.04,0.00,-1.00,39.61,-4.27,3.72,23.32,-22.49,11.01,2
0.02,0.09,-1.00,44.01,-0.98,-2.44,23.73,-23.27,10.14,2
0.02,0.12,-1.04,32.35,3.11,0.98,23.03,-24.63,9.56,2
0.03,0.14,-1.00,25.76,-5.98,-0.06,22.83,-24.48,9.11,2
0.02,0.18,-0.99,40.28,-3.91,-0.92,23.23,-25.57,8.84,2
0.03,0.21,-1.00,46.08,0.85,2.08,23.38,-26.72,7.90,2
0.02,0.25,-0.96,30.15,-5.68,1.65,23.19,-27.44,7.73,2
0.02,0.26,-0.96,18.07,-1.22,2.75,23.06,-27.36,7.40,2
0.03,0.30,-0.96,35.28,-0.43,-0.06,23.02,-28.37,6.58,2
0.02,0.31,-0.96,3.30,-1.04,3.42,22.94,-28.59,6.82,2
0.01,0.31,-0.97,5.43,-1.46,2.56,22.83,-28.76,6.36,2
0.02,0.30,-0.95,6.90,-1.40,3.72,23.16,-28.67,5.25,2
0.01,0.30,-0.96,2.75,-2.56,1.71,22.75,-28.87,5.93,2
0.01,0.31,-0.96,6.84,-2.32,2.62,23.10,-28.93,5.59,2
0.01,0.31,-0.96,2.08,-1.83,1.65,23.35,-28.39,5.36,2
0.01,0.31,-0.96,9.89,-2.32,0.92,22.66,-29.09,6.70,2
0.01,0.31,-0.96,-2.08,-3.60,2.08,22.96,-29.11,5.62,2
0.01,0.32,-0.96,8.79,-1.77,2.20,22.85,-28.97,6.23,2
0.01,0.31,-0.96,-1.53,-3.48,1.46,22.57,-29.11,5.29,2
0.01,0.30,-0.96,-2.99,-3.17,2.69,22.95,-28.37,5.97,2
0.01,0.31,-0.97,-1.71,-3.17,2.14,22.84,-29.17,6.10,2
0.01,0.29,-0.96,-4.52,-3.48,1.95,22.90,-28.98,6.59,2
0.01,0.27,-0.96,-19.10,-4.70,0.24,22.62,-28.06,6.27,2
0.02,0.24,-0.96,-31.80,-5.07,1.10,22.41,-27.36,6.93,2
0.02,0.20,-0.99,-42.91,-5.00,-2.20,23.03,-26.17,7.81,2
0.02,0.15,-0.99,-56.21,-5.92,1.10,23.16,-24.62,9.69,2
0.02,0.09,-1.01,-59.69,-3.78,3.48,22.91,-23.75,10.21,2
0.02,0.06,-1.04,-12.88,2.69,3.91,22.29,-22.75,10.52,2
0.01,0.03,-1.02,-35.22,-1.22,3.91,22.41,-21.89,10.63,2
0.02,-0.05,-0.98,-33.08,5.43,2.93,22.18,-20.02,11.25,2
0.01,-0.07,-1.01,-24.41,1.95,4.94,22.52,-19.18,12.82,2
0.00,-0.09,-1.01,-23.62,0.85,2.62,22.91,-18.95,13.21,2
0.00,-0.12,-1.02,-35.89,-0.31,-0.55,22.24,-17.93,12.43,2
0.00,-0.17,-1.00,-23.07,-2.99,-0.12,22.77,-17.07,12.16,2
0.01,-0.19,-1.00,-14.89,-2.62,1.10,22.58,-16.35,13.84,2
0.00,-0.25,-1.00,-67.87,-3.66,2.75,22.34,-15.08,13.06,2
0.01,-0.31,-0.94,-40.04,-1.59,2.26,22.28,-13.40,12.94,2
0.00,-0.32,-0.97,1.16,-1.46,0.24,22.31,-12.95,13.71,2
0.01,-0.33,-0.95,-4.09,-1.59,-0.06,22.35,-12.51,14.11,2
0.00,-0.35,-0.96,-15.81,-1.10,1.16,22.13,-12.55,14.22,2
0.00,-0.36,-0.93,-10.31,-2.99,2.01,22.61,-11.47,13.95,2
0.00,-0.37,-0.95,-8.18,-3.11,1.71,22.42,-11.77,13.67,2
0.00,-0.38,-0.92,2.93,-3.48,0.18,22.38,-10.79,14.32,2
0.00,-0.38,-0.95,9.89,-4.33,-0.79,22.50,-9.96,15.47,2
0.01,-0.37,-0.93,12.27,-3.60,0.24,21.96,-11.11,13.45,2
0.00,-0.36,-0.94,17.09,-1.95,0.73,21.59,-11.68,14.53,2
0.00,-0.34,-0.95,24.90,-3.36,0.61,21.86,-12.04,13.72,2
0.00,-0.33,-0.96,5.74,-3.05,1.22,22.35,-12.35,12.90,2
0.00,-0.33,-0.96,5.80,-1.83,1.28,21.52,-12.37,13.87,2
0.00,-0.33,-0.95,0.37,-3.72,3.11,22.13,-11.93,13.26,2
0.01,-0.32,-0.93,9.28,-5.92,3.05,22.17,-12.21,14.70,2
0.01,-0.30,-0.97,59.51,-9.95,0.61,22.22,-12.89,14.78,2
0.02,-0.19,-0.93,122.31,-7.02,-1.28,22.51,-16.06,13.66,2
0.01,-0.07,-1.05,107.79,-1.53,-2.93,22.13,-19.82,12.32,2
0.01,-0.03,-1.00,55.91,0.73,-0.85,22.05,-20.87,11.90,2
0.00,0.03,-1.01,40.83,6.71,0.61,21.84,-21.95,11.12,2
-0.00,0.05,-1.01,25.70,5.31,3.36,22.11,-22.74,11.40,2
-0.01,0.08,-0.99,30.64,4.15,0.18,22.16,-23.61,10.69,2
-0.02,0.10,-1.01,28.81,5.62,0.61,22.31,-24.39,10.80,2
-0.03,0.11,-1.00,-1.89,-1.16,1.83,21.92,-24.96,10.31,2
-0.02,0.11,-1.01,-2.01,-6.53,0.06,21.53,-24.22,10.51,2
-0.02,0.09,-1.01,-11.72,-8.48,0.31,21.77,-23.45,10.74,2
-0.01,0.07,-1.02,-15.08,-13.18,0.12,21.72,-23.43,10.90,2
0.01,0.06,-0.98,-0.61,-10.13,-0.24,22.24,-22.47,10.25,2
0.02,0.03,-1.02,-9.89,-23.99,-2.93,22.96,-22.31,11.25,2
0.03,0.03,-0.99,-0.24,-15.93,-0.43,23.46,-21.39,10.71,2
0.05,0.02,-1.03,-2.56,-20.14,0.92,24.01,-21.89,11.16,2
0.08,0.00,-0.99,-4.27,-23.56,4.88,24.06,-21.44,11.80,2
0.11,-0.02,-1.02,-8.79,-35.22,3.60,25.00,-21.62,10.45,2
0.14,-0.02,-0.98,-7.14,-41.50,9.40,26.46,-21.22,12.06,2
0.17,-0.01,-0.97,-11.60,-26.18,5.43,27.22,-20.51,11.78,2
0.18,-0.03,-1.00,2.14,-18.19,2.32,27.33,-20.57,11.51,2
0.20,-0.04,-0.99,-5.00,-8.36,2.50,27.32,-20.95,10.21,2
0.21,-0.05,-0.99,-1.53,-12.33,4.03,28.14,-20.52,10.89,2
0.21,-0.05,-0.98,-0.67,-4.82,2.99,28.34,-20.19,11.10,2
0.21,-0.05,-0.97,-5.49,-8.67,3.17,27.97,-20.19,9.99,2
0.22,-0.06,-0.98,1.77,-2.38,0.79,28.05,-19.70,11.58,2
0.22,-0.07,-0.99,-4.39,-3.48,1.71,28.10,-19.98,11.00,2
0.22,-0.07,-0.97,3.91,-3.85,1.28,27.82,-19.75,11.24,2
0.22,-0.07,-0.98,3.85,-2.01,2.14,27.38,-20.09,10.50,2
0.22,-0.07,-0.99,5.43,-3.11,1.40,27.76,-20.01,11.15,2
0.22,-0.07,-0.98,2.69,-3.48,1.40,27.73,-19.60,11.17,2
0.22,-0.07,-0.98,6.04,-1.65,1.53,27.76,-20.29,10.95,2
0.22,-0.07,-0.98,3.78,-1.16,0.92,27.81,-20.08,10.49,2
0.23,-0.07,-0.98,8.85,-0.06,1.22,27.71,-19.49,10.51,2
0.21,-0.07,-0.98,3.05,0.49,1.16,27.75,-19.76,12.55,2
0.21,-0.07,-0.98,7.20,2.99,-0.24,27.26,-20.02,11.67,2
0.20,-0.06,-0.97,-1.34,5.43,0.92,27.47,-20.13,12.13,2
0.19,-0.07,-1.00,1.89,13.49,3.78,26.93,-19.06,11.55,2
0.18,-0.07,-0.98,5.43,7.81,3.11,26.97,-19.92,12.28,2
0.17,-0.06,-0.98,7.26,14.28,2.50,26.51,-20.09,11.50,2
0.15,-0.06,-1.01,18.43,13.85,-1.04,26.00,-19.91,12.05,2
0.13,-0.03,-0.98,34.73,10.38,0.92,25.79,-20.68,10.75,2
0.12,-0.01,-1.00,20.08,15.87,2.14,25.38,-21.37,11.66,2
0.10,0.01,-0.99,24.17,19.35,-3.05,24.89,-22.47,11.15,2
0.09,0.01,-1.00,32.84,30.27,-2.44,24.24,-22.27,11.02,2
0.05,0.04,-1.01,22.64,18.07,2.50,23.22,-22.91,10.63,2
0.02,0.07,-1.02,8.73,27.34,1.16,22.80,-22.99,10.07,2
-0.01,0.05,-1.02,-8.42,31.31,0.06,21.92,-23.06,11.12,2
-0.04,0.04,-1.01,3.36,21.73,0.06,21.55,-22.56,10.23,2
-0.06,0.05,-0.99,2.75,28.93,-3.42,21.02,-22.40,11.28,2
-0.10,0.04,-1.02,2.20,12.02,-0.67,20.35,-23.58,11.38,2
-0.10,0.04,-0.99,6.53,1.22,0.61,20.19,-23.43,11.05,2
-0.11,0.05,-1.02,14.59,-0.49,-0.37,19.96,-22.77,11.39,2
-0.10,0.04,-1.01,-4.58,1.95,1.16,19.86,-22.63,10.99,2
-0.11,0.04,-0.99,-0.18,10.31,1.04,19.58,-23.01,10.79,2
-0.13,0.02,-1.00,-7.69,12.88,-1.22,19.65,-22.64,10.89,2
-0.15,0.01,-1.00,-6.53,16.11,-1.40,19.36,-22.36,11.63,2
-0.16,0.01,-1.00,-0.49,5.98,-1.53,19.12,-22.47,10.74,2
-0.17,-0.00,-0.99,-1.40,1.28,2.56,18.93,-22.68,11.36,2
-0.16,0.00,-1.00,5.37,-0.24,0.43,18.60,-21.17,11.74,2
-0.18,0.00,-1.01,3.97,-0.67,0.24,18.73,-22.24,11.04,2
-0.16,0.00,-0.98,2.62,-1.83,2.01,18.59,-22.35,11.06,2
-0.18,-0.01,-1.01,3.17,-2.93,1.34,19.04,-21.87,11.32,2
-0.17,0.00,-0.98,5.37,-3.36,1.40,18.49,-22.25,10.74,2
-0.18,0.01,-1.03,1.04,-3.30,0.79,18.93,-21.72,12.00,2
-0.16,-0.02,-0.99,-27.22,-2.99,1.95,18.71,-21.24,12.17,2
-0.18,-0.06,-1.02,-44.13,3.05,-0.85,18.84,-20.23,12.68,2
-0.18,-0.10,-0.97,-41.63,8.18,-2.08,17.69,-18.69,13.29,2
-0.19,-0.15,-0.97,-26.61,9.34,-4.76,17.94,-17.15,12.57,2
-0.21,-0.17,-0.99,-19.17,5.25,-2.20,17.50,-16.64,13.67,2
-0.20,-0.18,-0.97,-6.16,1.46,0.85,17.77,-15.92,13.06,2
-0.22,-0.19,-0.98,-25.09,0.85,0.37,17.24,-16.14,13.59,2
-0.21,-0.22,-0.97,-4.46,-0.18,-0.61,17.59,-15.83,14.38,2
-0.21,-0.23,-0.95,0.43,-0.98,-0.12,17.58,-15.00,13.12,2
-0.22,-0.22,-0.97,2.62,-1.28,0.37,17.33,-15.31,13.55,2
-0.22,-0.23,-0.95,1.95,-1.89,0.49,17.79,-15.26,14.29,2
-0.22,-0.22,-0.96,5.31,-2.99,1.10,17.81,-15.39,13.43,2
-0.22,-0.23,-0.97,-0.43,-2.26,2.32,17.57,-15.55,14.07,2
-0.22,-0.22,-0.96,5.19,-3.23,1.34,17.40,-15.88,13.33,2
-0.23,-0.23,-0.97,4.88,-1.77,1.71,17.85,-15.81,14.23,2
-0.22,-0.22,-0.95,4.39,-2.93,2.08,17.27,-15.78,14.34,2
-0.23,-0.23,-0.97,4.52,-3.23,1.10,17.59,-15.16,13.88,2
-0.21,-0.23,-0.96,3.66,-2.75,1.71,17.00,-15.43,12.96,2
-0.22,-0.23,-0.96,4.15,-2.93,1.53,17.61,-15.61,13.15,2
-0.21,-0.23,-0.96,4.03,-2.62,2.32,17.26,-14.94,13.66,2
-0.23,-0.23,-0.98,0.73,-3.54,3.72,17.29,-14.76,14.59,2
-0.21,-0.24,-0.96,1.65,-4.21,2.69,17.59,-15.31,14.27,2
-0.21,-0.24,-0.96,8.79,-3.97,2.38,17.31,-15.33,13.45,2
-0.21,-0.23,-0.97,17.64,-8.61,4.58,17.83,-15.22,13.85,2
-0.19,-0.21,-0.96,30.33,-13.61,4.58,18.21,-16.41,12.50,2
-0.19,-0.19,-0.99,35.77,-21.97,6.04,18.76,-16.75,14.17,2
-0.16,-0.15,-1.00,48.40,-22.64,9.40,18.64,-18.20,12.13,2
-0.13,-0.11,-0.97,17.03,-26.31,11.72,19.49,-18.57,13.56,2
-0.12,-0.11,-0.98,37.29,-18.86,4.39,19.60,-19.38,13.11,2
-0.09,-0.05,-1.01,50.17,-27.77,10.07,20.18,-20.86,11.90,2
-0.07,-0.02,-1.01,42.60,-23.62,2.38,21.17,-21.83,11.56,2
-0.08,-0.01,-1.09,33.02,-29.66,16.91,21.57,-22.25,11.72,2
-0.00,0.05,-0.95,22.09,-41.20,12.08,22.39,-22.97,11.41,2
0.02,0.07,-1.00,31.37,-29.72,13.06,22.69,-23.44,10.93,2
0.03,0.08,-1.00,28.99,-21.97,8.85,23.52,-24.28,10.44,2
0.06,0.13,-0.99,66.77,-33.39,17.76,23.80,-26.06,8.87,2
0.08,0.22,-0.98,69.34,-14.47,6.10,24.27,-27.94,7.96,2
0.11,0.24,-0.98,28.32,-39.43,19.04,25.05,-28.96,6.92,2
0.13,0.27,-0.94,41.93,-31.68,14.40,25.43,-29.59,6.31,2
0.15,0.32,-0.92,26.00,-27.77,15.81,25.54,-29.91,5.73,2
0.16,0.33,-0.94,39.43,-21.91,12.88,26.78,-30.98,5.36,2
0.18,0.39,-0.87,51.27,-22.77,20.81,26.87,-31.69,4.70,2
0.18,0.41,-0.87,50.11,-10.07,19.04,26.21,-32.64,4.21,2
0.17,0.50,-0.85,47.67,-3.42,15.44,26.37,-33.94,1.03,2
0.17,0.50,-0.85,31.74,3.42,8.24,26.01,-34.56,0.81,2
0.15,0.52,-0.84,14.04,5.00,9.77,25.40,-34.48,1.06,2
0.15,0.51,-0.84,16.54,4.27,9.40,24.98,-34.63,0.62,2
0.14,0.54,-0.84,0.98,-0.73,9.16,24.58,-34.42,1.01,2
0.14,0.53,-0.84,1.34,-2.87,1.10,24.48,-34.70,0.17,2
0.14,0.52,-0.85,-7.51,1.83,2.50,24.00,-34.33,1.00,2
0.13,0.51,-0.85,-7.63,-3.85,-0.67,24.01,-33.84,1.29,2
0.13,0.50,-0.85,-8.30,-15.32,0.61,24.10,-33.35,1.29,2
0.13,0.49,-0.88,-10.31,0.24,0.00,23.89,-33.34,1.62,2
0.14,0.46,-0.88,-11.72,-3.23,-1.04,23.77,-31.99,1.64,2
0.14,0.45,-0.89,-24.54,-4.21,1.65,23.68,-32.40,3.17,2
0.14,0.43,-0.91,-48.77,-5.49,-6.16,23.47,-31.41,4.14,2
0.15,0.35,-0.92,-52.61,-9.40,-2.75,23.14,-29.92,4.35,2
0.15,0.31,-0.94,-57.19,-5.55,-0.49,23.82,-28.53,6.18,2
0.16,0.25,-0.97,-41.44,-11.66,-5.07,23.83,-27.36,6.69,2
0.19,0.19,-0.99,-70.43,-16.85,-4.27,23.99,-25.51,7.71,2
0.19,0.12,-0.98,-44.86,-13.00,-10.07,24.30,-23.96,9.36,2
0.21,0.07,-0.97,-49.68,-10.07,-7.63,25.00,-22.86,9.81,2
0.22,-0.02,-0.98,-81.18,-9.34,-9.77,24.65,-20.97,10.06,2
0.22,-0.10,-0.97,-60.49,-13.79,-3.72,24.85,-18.48,11.63,2
0.25,-0.15,-0.98,-25.63,-7.93,0.06,25.26,-17.21,12.11,2
0.25,-0.18,-0.97,-35.34,-13.79,-0.98,25.56,-16.25,11.93,2
0.29,-0.23,-0.95,-47.79,-14.89,-0.24,26.43,-15.75,12.27,2
0.27,-0.32,-0.93,-107.67,-14.47,2.14,26.73,-12.85,12.90,2
0.25,-0.37,-0.82,-62.07,-11.35,7.39,27.05,-10.56,13.57,2
0.29,-0.41,-0.88,-3.11,-4.03,0.67,27.12,-9.62,13.05,2
0.29,-0.41,-0.88,-1.77,-4.15,1.46,27.21,-9.88,12.61,2
0.29,-0.41,-0.88,8.42,-3.42,1.46,27.04,-9.63,13.02,2
0.29,-0.41,-0.87,7.14,-2.08,0.49,27.22,-9.79,13.18,2
0.29,-0.41,-0.88,6.16,-2.69,-1.04,27.15,-9.68,13.11,2
0.29,-0.37,-0.88,44.37,2.20,-2.32,27.49,-10.55,13.57,2
0.28,-0.37,-0.91,14.22,0.18,-3.23,27.05,-10.44,13.45,2
0.26,-0.34,-0.90,26.98,9.40,-8.30,26.71,-11.39,13.29,2
0.26,-0.35,-0.93,19.41,8.67,-7.26,26.37,-11.83,12.51,2
0.23,-0.33,-0.90,27.10,15.81,-13.85,26.05,-11.50,13.78,2
0.22,-0.32,-0.96,22.22,22.58,-19.47,25.39,-12.18,13.33,2
0.18,-0.30,-0.95,26.61,25.63,-14.77,25.24,-13.15,13.33,2
0.13,-0.27,-0.92,16.91,35.28,-20.51,24.11,-13.75,13.72,2
0.10,-0.31,-1.02,56.15,25.02,-20.75,23.45,-14.48,14.22,2
0.08,-0.22,-0.97,51.15,7.02,-4.27,22.95,-15.59,13.70,2
0.04,-0.18,-0.96,58.23,26.12,-17.33,22.39,-17.40,14.05,2
0.02,-0.11,-1.03,48.65,37.05,-14.89,21.67,-19.19,13.35,2
-0.02,-0.09,-1.01,41.26,23.07,-7.32,21.37,-19.58,11.91,2
-0.05,-0.03,-1.01,46.88,28.26,-4.64,21.22,-21.29,11.52,2
-0.10,-0.00,-1.00,58.90,33.94,-4.88,20.17,-22.61,12.35,2
-0.17,0.08,-1.22,90.03,29.91,-6.23,19.93,-24.80,10.13,2
-0.13,0.12,-0.99,38.02,3.05,-5.98,19.63,-25.16,10.18,2
-0.13,0.14,-1.00,20.81,2.14,-5.62,19.17,-26.17,8.68,2
-0.15,0.17,-0.98,39.43,9.77,-2.93,19.49,-26.71,8.75,2
-0.16,0.20,-0.98,18.55,11.17,-0.12,18.88,-27.08,8.30,2
-0.19,0.23,-0.98,31.49,11.66,1.34,18.68,-27.93,8.46,2
-0.18,0.23,-0.96,13.92,11.72,-0.12,18.14,-27.78,6.79,2
-0.22,0.26,-0.97,31.25,7.63,-3.78,17.86,-28.19,7.65,2
-0.20,0.25,-0.94,13.24,16.91,-1.16,17.43,-27.94,7.76,2
-0.23,0.28,-0.95,27.40,16.54,-3.60,17.55,-28.96,6.49,2
-0.24,0.30,-0.93,14.10,12.45,-0.43,17.05,-29.15,7.12,2
-0.26,0.30,-0.94,2.93,8.12,1.89,17.07,-29.32,7.06,2
-0.27,0.31,-0.93,14.59,18.07,0.31,16.33,-29.15,6.36,2
-0.29,0.31,-0.92,8.54,11.60,1.53,16.00,-29.11,5.88,2
-0.29,0.32,-0.91,21.30,4.39,0.98,16.27,-29.31,5.70,2
-0.30,0.35,-0.89,21.30,4.27,-0.43,15.82,-29.43,6.09,2
-0.31,0.36,-0.90,13.61,-6.59,0.37,15.93,-29.94,5.69,2
-0.30,0.36,-0.89,12.63,3.30,0.00,15.88,-30.09,4.98,2
-0.30,0.36,-0.89,4.58,-2.93,0.06,15.58,-30.07,4.22,2
-0.30,0.37,-0.89,8.61,-3.23,0.61,15.60,-29.43,4.17,2
-0.31,0.38,-0.88,5.80,-2.20,1.95,16.22,-30.26,5.33,2
-0.31,0.38,-0.88,5.92,-1.16,2.26,16.13,-30.42,4.75,2
-0.31,0.37,-0.88,0.18,-0.98,1.10,15.81,-30.29,4.58,2
-0.31,0.37,-0.89,-3.42,-0.55,2.20,15.64,-30.08,4.47,2
-0.31,0.36,-0.88,-0.98,-1.95,1.71,15.82,-29.93,5.19,2
-0.31,0.35,-0.90,-10.50,0.12,4.46,15.25,-29.69,4.93,2
-0.32,0.33,-0.90,-19.35,3.97,3.60,15.32,-28.67,5.48,2
-0.33,0.31,-0.90,-22.22,3.11,3.48,15.26,-29.03,5.35,2
-0.32,0.29,-0.91,-10.93,0.85,3.30,14.90,-28.41,5.93,2
-0.34,0.25,-0.92,-31.43,6.23,5.00,14.43,-27.59,6.90,2
-0.34,0.24,-0.92,-26.49,3.78,3.11,14.86,-26.79,7.25,2
-0.34,0.22,-0.91,-29.85,3.91,5.00,14.21,-26.22,7.82,2
-0.36,0.17,-0.95,-28.50,6.16,1.65,14.10,-25.09,7.74,2
-0.36,0.13,-0.93,-27.47,3.72,2.81,13.55,-24.72,9.75,2
-0.36,0.12,-0.94,-11.72,1.89,1.10,13.32,-22.73,10.33,2
-0.37,0.10,-0.93,-9.16,0.18,1.04,13.13,-23.27,9.30,2
-0.37,0.09,-0.94,-8.30,-0.12,2.38,13.42,-22.39,10.00,2
-0.37,0.08,-0.94,-1.28,-0.49,0.79,13.18,-22.22,9.75,2
-0.37,0.07,-0.94,-0.55,-3.66,2.62,13.17,-22.30,10.03,2
-0.36,0.07,-0.94,1.16,-1.16,1.16,13.64,-22.50,9.91,2
-0.37,0.07,-0.93,-0.37,-4.82,2.08,13.23,-22.68,9.74,2
-0.37,0.06,-0.95,-0.55,-5.68,2.50,13.46,-21.66,10.88,2
-0.36,0.05,-0.94,-10.13,-7.87,5.43,13.21,-22.49,10.73,2
-0.36,0.05,-0.96,-38.21,-20.87,5.55,14.00,-21.69,11.40,2
-0.34,-0.07,-0.98,-61.89,-33.45,13.73,14.16,-19.80,12.29,2
-0.28,-0.08,-0.91,-40.59,-30.94,11.90,15.06,-18.41,12.35,2
-0.27,-0.12,-0.99,-24.17,-37.17,17.09,16.03,-17.54,12.57,2
-0.23,-0.16,-0.93,-5.74,-14.83,3.48,16.26,-16.92,13.09,2
-0.24,-0.15,-0.99,-12.27,-9.83,7.26,16.43,-15.72,13.26,2
-0.21,-0.23,-0.95,-39.98,-22.22,11.17,17.40,-15.43,13.57,2
-0.19,-0.24,-0.99,-25.02,-17.64,12.94,17.27,-14.84,13.33,2
-0.18,-0.30,-0.97,-43.82,-27.40,15.08,18.18,-13.62,14.56,2
-0.14,-0.34,-0.96,-69.70,-26.98,17.76,19.03,-11.56,15.10,2
-0.11,-0.42,-0.87,-71.29,-21.06,13.00,20.19,-9.08,14.73,2
-0.10,-0.45,-0.86,-6.10,-4.64,5.80,20.13,-8.54,14.34,2
-0.10,-0.49,-0.92,-9.89,-6.04,5.55,19.97,-7.89,14.07,2
-0.09,-0.49,-0.85,-21.30,-7.32,6.77,19.82,-7.30,13.88,2
-0.08,-0.53,-0.90,-2.81,-9.77,8.18,20.37,-6.68,14.49,2
-0.06,-0.51,-0.83,-10.86,-16.54,11.35,20.24,-6.34,14.66,2
-0.05,-0.53,-0.90,33.14,-18.37,9.83,21.46,-7.80,13.77,2
-0.02,-0.51,-0.87,-4.33,-24.72,13.18,21.81,-7.40,14.14,2
0.02,-0.49,-0.90,47.85,-45.78,18.13,22.40,-8.29,14.77,2
0.04,-0.48,-0.89,-2.99,-35.71,18.25,23.61,-8.18,13.64,2
0.09,-0.49,-0.92,53.71,-36.44,16.11,24.68,-9.14,13.65,2
0.12,-0.35,-0.88,72.08,-40.83,12.08,26.04,-10.40,14.42,2
0.14,-0.35,-0.93,71.23,-25.27,5.86,27.19,-12.76,13.27,2
0.17,-0.28,-0.97,78.98,-22.28,9.83,27.91,-15.01,13.73,2
0.18,-0.22,-0.94,77.09,-26.18,14.22,28.36,-16.54,12.82,2
0.24,-0.11,-1.02,35.40,-28.63,24.11,29.16,-18.73,11.08,2
0.25,-0.12,-0.99,31.49,-16.97,7.02,29.85,-19.93,11.29,2
0.26,-0.08,-0.97,28.56,-26.67,6.10,30.44,-21.04,9.89,2
0.27,-0.09,-0.94,-5.37,-11.96,3.48,31.21,-20.76,10.78,2
0.30,-0.09,-0.98,8.36,-10.93,-3.23,30.99,-20.83,9.62,2
0.29,-0.08,-0.94,-4.27,-12.27,-6.10,31.67,-21.18,10.63,2
0.29,-0.12,-0.96,-21.61,-11.47,0.67,32.21,-20.70,11.07,2
0.30,-0.12,-0.95,8.30,-5.19,6.04,32.53,-20.41,11.33,2
0.31,-0.12,-0.94,39.49,-4.88,2.99,33.26,-21.06,9.07,2
0.32,-0.06,-0.95,28.56,-4.21,3.11,32.97,-21.92,9.90,2
0.31,-0.06,-0.96,20.45,-3.23,0.85,32.40,-22.44,10.38,2
0.30,-0.02,-0.97,18.92,2.01,-0.12,32.64,-23.22,9.47,2
0.31,-0.02,-0.97,9.28,1.16,-1.34,32.54,-23.06,9.92,2
0.29,-0.04,-0.96,7.02,5.37,-6.16,32.30,-22.50,10.55,2
0.27,-0.04,-0.94,-6.41,0.18,2.69,32.18,-22.41,9.91,2
0.30,-0.04,-0.98,-2.14,0.61,-2.08,32.06,-22.35,9.91,2
0.28,-0.06,-0.95,-12.39,4.39,-6.77,31.24,-21.52,9.75,2
0.25,-0.07,-0.93,15.75,5.98,-3.85,30.94,-21.67,10.13,2
0.27,0.00,-0.98,76.11,2.56,-0.98,30.98,-21.91,8.84,2
0.25,0.06,-0.95,83.13,15.99,0.43,29.55,-22.95,8.98,2
0.26,0.11,-1.00,33.20,7.08,4.46,29.80,-24.61,7.89,2
0.24,0.15,-0.98,50.48,6.47,-0.12,29.27,-25.66,7.47,2
0.22,0.19,-0.95,44.68,16.05,3.54,29.15,-25.95,6.75,2
0.19,0.20,-0.96,36.07,12.51,4.82,28.12,-26.61,6.91,2
0.18,0.27,-0.91,49.93,19.04,10.19,27.91,-26.89,6.54,2
0.16,0.27,-1.00,21.00,18.37,5.68,27.06,-27.89,5.40,2
0.19,0.34,-1.02,44.13,8.00,4.94,26.90,-28.31,6.12,2
0.14,0.40,-1.10,10.31,-20.69,14.47,26.65,-28.87,5.43,2
0.17,0.36,-1.00,22.34,1.46,2.26,26.09,-28.78,4.46,2
0.13,0.35,-0.88,38.76,1.53,-1.83,26.73,-29.77,3.58,2
0.13,0.42,-0.92,51.64,8.12,-2.99,26.16,-30.58,2.88,2
0.12,0.46,-0.90,21.36,2.93,-7.57,26.48,-31.51,2.86,2
0.12,0.46,-0.89,-11.72,-0.49,-2.38,25.89,-31.73,3.15,2
0.12,0.42,-0.86,6.59,4.88,-3.97,26.35,-31.09,1.73,2
0.11,0.43,-0.89,5.92,8.91,13.79,26.71,-31.41,3.39,2
0.08,0.45,-0.90,14.53,19.23,24.84,25.42,-32.03,2.99,2
0.05,0.48,-0.88,19.17,13.67,22.16,25.02,-32.21,2.19,2
0.04,0.45,-0.89,27.40,13.31,19.29,24.63,-32.67,1.83,2
-0.01,0.52,-0.87,12.02,12.08,21.36,23.49,-33.63,2.08,2
0.00,0.51,-0.89,-6.59,4.46,10.01,23.23,-33.64,2.14,2
-0.01,0.49,-0.87,-6.23,13.00,7.14,23.07,-33.31,2.28,2
-0.04,0.44,-0.87,-47.91,21.48,16.85,22.49,-32.59,2.81,2
-0.06,0.42,-0.92,-39.37,21.42,7.32,21.66,-31.69,4.31,2
-0.09,0.34,-0.94,-66.35,22.34,9.70,21.08,-30.36,6.14,2
-0.11,0.29,-0.96,-115.23,35.22,13.43,20.51,-28.32,6.99,2
-0.16,0.19,-1.01,-62.44,38.09,4.52,19.04,-26.27,9.45,2
-0.19,0.10,-1.03,-92.35,14.22,10.99,18.35,-24.28,10.80,2
-0.15,-0.01,-0.86,-78.98,-9.89,-3.85,18.15,-21.08,12.56,2
-0.20,-0.01,-1.01,-2.20,-8.00,-5.07,18.55,-21.13,12.83,2
-0.18,-0.02,-1.05,-20.87,-15.93,0.73,18.29,-20.85,11.33,2
-0.15,-0.08,-0.98,-57.19,-4.33,4.03,19.14,-19.38,12.04,2
-0.15,-0.12,-0.97,-49.62,-2.81,3.30,19.31,-18.27,12.87,2
-0.15,-0.19,-0.96,-33.26,-5.31,1.95,19.15,-16.71,13.73,2
-0.15,-0.24,-0.99,-91.43,-7.63,14.89,19.18,-15.23,14.47,2
-0.13,-0.29,-0.93,-2.32,-12.70,6.04,19.78,-13.44,15.63,2
-0.13,-0.29,-0.98,28.75,-14.83,-0.06,19.48,-13.79,14.58,2
-0.11,-0.30,-0.97,-11.60,-19.96,12.21,19.74,-13.37,13.93,2
-0.08,-0.30,-0.94,-18.49,-23.32,15.56,20.23,-12.96,15.08,2
-0.06,-0.34,-0.99,-8.42,-26.73,14.16,21.11,-12.82,14.10,2
-0.03,-0.33,-0.96,-21.18,-21.18,11.05,21.40,-12.38,13.82,2
-0.01,-0.40,-0.90,-60.24,-11.11,10.86,22.02,-10.60,13.65,2
-0.00,-0.42,-0.92,2.69,-3.60,0.43,22.49,-9.36,14.92,2
-0.01,-0.43,-0.94,-7.93,0.31,-2.32,22.58,-9.90,14.27,2
-0.02,-0.46,-0.90,-35.64,-2.56,6.35,22.71,-9.51,13.73,2
-0.01,-0.47,-0.90,15.26,-2.75,-2.26,22.46,-8.70,13.82,2
-0.01,-0.45,-0.91,37.90,-8.91,-0.37,22.23,-9.20,13.05,2
0.00,-0.40,-0.92,52.25,-7.93,-2.56,22.33,-10.30,13.78,2
-0.00,-0.36,-0.97,72.39,-6.90,-4.52,22.23,-11.51,14.14,2
-0.00,-0.32,-0.95,60.30,-7.63,-6.53,22.27,-12.85,14.11,2
0.00,-0.26,-0.96,64.27,-5.86,-2.38,23.19,-14.73,14.67,2
0.00,-0.20,-1.00,61.89,-4.46,-2.99,23.27,-16.65,13.34,2
-0.00,-0.10,-0.98,79.83,1.83,-3.78,22.77,-18.18,12.51,2
-0.01,-0.04,-1.03,68.97,1.04,-1.10,23.06,-20.53,11.43,2
-0.01,0.02,-1.00,72.33,6.77,2.01,22.66,-22.14,11.06,2
-0.03,0.11,-1.03,71.17,7.14,3.85,22.50,-23.80,9.46,2
-0.01,0.12,-0.97,77.21,-1.95,1.16,21.77,-25.09,9.14,2
-0.03,0.29,-0.97,108.03,3.66,5.13,22.12,-27.95,7.58,2
-0.05,0.34,-0.97,30.52,-2.20,0.79,22.06,-28.78,5.54,2
-0.04,0.37,-0.94,59.94,-2.56,-4.94,22.20,-30.07,5.42,2
-0.05,0.37,-0.93,19.53,-6.53,-3.91,22.25,-30.54,3.45,2
-0.03,0.39,-0.92,5.62,-3.23,-1.34,22.19,-30.15,3.61,2
-0.05,0.36,-0.94,-30.52,-0.92,0.37,22.91,-30.14,5.35,2
-0.04,0.33,-0.94,-20.26,8.73,3.42,22.39,-28.87,4.28,2
-0.05,0.30,-0.97,-69.76,10.25,5.55,21.64,-28.02,7.59,2
-0.08,0.20,-0.99,-71.17,28.44,9.64,21.23,-26.10,7.08,2
-0.10,0.14,-0.96,-45.84,2.81,4.94,20.31,-25.10,8.52,2
-0.09,0.13,-1.00,-23.44,3.66,2.75,20.14,-23.77,9.28,2
-0.11,0.09,-1.01,-39.98,10.80,3.91,20.04,-23.10,9.31,2
-0.10,0.07,-1.00,-14.28,-6.41,3.42,20.01,-22.28,10.41,2
-0.08,0.07,-1.03,-13.61,-35.03,1.28,20.94,-21.86,10.25,2
-0.05,-0.02,-0.96,-41.93,-36.87,4.46,21.75,-21.75,10.47,2
-0.02,0.00,-0.99,4.58,-14.47,0.85,22.42,-21.81,10.88,2
-0.02,0.00,-1.03,-12.70,-18.07,3.30,23.00,-22.28,11.22,2
-0.01,-0.04,-1.00,-44.07,-15.20,10.86,23.49,-21.12,11.69,2
0.01,-0.04,-0.99,5.19,-2.14,2.01,23.94,-21.80,10.56,2
-0.01,-0.04,-1.04,5.49,-0.67,2.38,24.01,-20.97,10.99,2
0.00,-0.04,-1.01,-2.20,-6.84,2.26,23.77,-21.55,10.63,2
0.00,-0.05,-1.01,-3.91,-7.39,2.69,23.90,-21.39,11.61,2
0.01,-0.05,-1.01,15.20,-4.39,-0.18,24.71,-21.42,11.27,2
0.01,-0.05,-1.00,-0.06,-5.25,2.32,23.79,-21.33,11.93,2
0.02,-0.04,-1.01,11.66,-4.03,0.85,24.21,-21.18,11.60,2
0.01,-0.04,-1.02,3.60,-2.20,0.92,24.06,-21.22,11.77,2
0.01,-0.03,-1.01,22.16,3.17,-4.46,23.18,-21.48,12.16,2
0.01,-0.02,-1.00,10.07,-2.87,0.24,23.19,-21.51,10.86,2
0.01,-0.02,-1.02,-0.18,-3.23,3.60,23.61,-21.61,10.50,2
0.01,-0.02,-1.01,6.23,-2.99,-0.61,23.40,-21.50,11.18,2
0.00,-0.02,-1.01,4.15,-1.65,0.24,23.49,-21.30,11.06,2
-0.00,-0.02,-1.00,5.68,-1.34,0.00,22.79,-20.69,11.71,2
0.01,-0.01,-1.01,3.60,-1.10,2.20,23.24,-21.58,10.73,2
0.00,-0.02,-1.02,-2.32,-2.26,1.77,23.06,-21.15,11.74,2
0.01,-0.02,-1.00,12.51,1.10,0.18,23.01,-21.13,11.35,2
-0.00,-0.02,-1.01,3.23,-3.05,0.49,23.39,-21.42,11.66,2
-0.00,-0.01,-1.01,8.00,-0.49,0.73,22.90,-21.29,10.95,2
0.00,-0.01,-1.00,4.27,-2.69,0.85,22.72,-21.14,11.85,2
-0.01,-0.02,-1.01,2.87,-0.37,3.17,22.90,-21.03,10.99,2
-0.00,-0.02,-1.00,4.21,-3.42,0.92,22.86,-21.07,10.25,2
-0.01,-0.01,-1.02,5.13,-1.59,0.79,23.21,-21.45,12.26,2
-0.01,-0.02,-1.00,5.31,-2.81,-0.73,22.56,-20.91,11.89,2
-0.00,-0.02,-1.00,5.68,-2.20,-0.12,22.89,-20.89,10.22,2
-0.01,-0.01,-1.02,3.97,-2.08,1.34,22.99,-21.57,11.02,2
-0.01,-0.02,-1.01,5.13,-3.23,0.79,22.71,-21.34,10.85,2
-0.01,-0.02,-1.01,2.14,-3.36,0.79,22.88,-21.52,11.16,2
-0.01,-0.02,-1.01,4.15,-2.87,0.92,22.63,-20.83,9.74,2
-0.00,-0.01,-1.01,5.43,-3.05,0.43,22.44,-21.33,10.71,2
-0.01,-0.01,-1.02,7.81,-2.38,0.67,22.56,-21.62,11.19,2
-0.01,-0.01,-1.00,2.69,-2.38,1.53,22.91,-20.76,10.97,2
-0.01,-0.01,-1.01,3.91,-3.54,1.71,22.42,-21.23,11.15,2
-0.00,-0.01,-1.01,5.80,-1.22,0.49,22.16,-21.04,10.89,2
-0.01,-0.02,-1.01,-2.08,-2.01,2.93,22.63,-20.90,10.41,2
-0.01,-0.02,-1.01,4.58,-2.69,1.16,22.27,-20.91,10.01,2
-0.01,-0.02,-1.01,-2.38,-3.36,0.31,22.33,-20.74,11.51,2
-0.00,-0.03,-1.01,1.16,-2.69,1.59,22.73,-20.74,11.72,2
-0.01,-0.04,-1.02,-4.21,-3.78,2.14,22.58,-20.09,12.06,2
-0.01,-0.05,-1.00,-5.55,-3.23,0.98,22.68,-19.93,11.60,2
-0.00,-0.06,-1.01,-6.41,-5.98,2.44,22.68,-19.81,11.36,2
0.00,-0.07,-1.01,7.20,-6.71,3.60,23.34,-20.46,12.04,2
0.01,-0.05,-1.01,2.26,-14.47,6.23,23.12,-19.75,11.43,2
0.02,-0.06,-1.01,2.50,-7.57,3.17,23.68,-20.39,11.50,2
0.03,-0.07,-0.99,1.34,-11.47,3.11,23.82,-19.89,11.55,2
0.04,-0.07,-1.02,-11.47,-11.54,3.72,23.75,-19.56,11.58,2
0.05,-0.09,-1.00,-15.69,-22.46,8.00,24.62,-19.54,11.76,2
0.08,-0.13,-0.97,-21.42,-21.48,11.23,25.67,-18.87,11.23,2
0.08,-0.13,-1.00,3.78,-3.36,2.87,25.93,-18.63,12.11,2
0.08,-0.13,-0.99,2.87,-6.96,2.81,25.29,-18.07,12.41,2
0.09,-0.14,-1.01,10.44,-4.15,3.23,25.55,-18.47,12.55,2
0.09,-0.14,-1.00,10.13,-3.72,1.59,26.15,-18.96,11.49,2
0.07,-0.11,-1.00,7.32,-4.03,-0.92,25.66,-18.98,11.96,2
0.11,-0.12,-0.98,11.66,-3.30,-2.81,25.54,-19.42,10.51,2
0.09,-0.11,-1.00,5.07,-3.30,-4.27,25.56,-19.71,12.56,2
0.08,-0.13,-1.00,-14.04,4.58,3.11,25.90,-18.71,11.34,2
0.08,-0.12,-1.00,19.78,0.79,-2.69,25.56,-18.90,12.02,2
0.08,-0.11,-1.00,5.19,2.08,-1.77,25.26,-19.69,11.36,2
0.07,-0.12,-1.02,6.47,2.08,0.49,25.34,-20.10,12.18,2
0.07,-0.12,-0.99,16.36,4.88,-1.40,24.98,-19.42,12.06,2
0.05,-0.09,-1.01,28.87,15.56,-0.85,24.58,-19.37,12.79,2
0.05,-0.07,-1.01,12.82,0.98,1.71,24.62,-20.29,12.19,2
0.04,-0.07,-1.00,25.63,10.25,-2.99,24.18,-20.29,11.54,2
0.00,-0.05,-0.97,0.12,24.84,-2.93,23.27,-20.75,11.13,2
-0.02,-0.05,-1.00,7.69,26.79,-3.85,22.69,-20.34,11.35,2
-0.06,-0.06,-1.00,-4.21,37.84,-3.11,22.09,-20.18,11.17,2
-0.08,-0.05,-0.98,8.36,30.21,-3.48,21.39,-20.40,11.54,2
-0.15,-0.06,-1.12,10.50,46.94,-4.88,19.46,-19.03,12.06,2
-0.13,-0.09,-1.00,-19.23,13.24,-2.44,19.17,-18.81,12.59,2
-0.17,-0.09,-1.00,-6.59,8.00,-4.15,18.95,-18.76,12.79,2
-0.17,-0.11,-1.00,13.43,9.95,-5.68,18.97,-18.44,12.98,2
-0.18,-0.09,-0.99,10.38,4.70,-3.60,18.16,-18.43,12.30,2
-0.19,-0.09,-0.99,4.76,6.41,-4.21,17.90,-18.09,12.84,2
-0.19,-0.09,-0.99,3.30,2.08,0.00,18.04,-18.35,12.89,2
-0.21,-0.09,-0.99,9.64,3.78,-0.06,17.41,-18.13,12.65,2
-0.22,-0.08,-0.99,5.37,9.40,-1.22,17.40,-18.74,11.46,2
-0.22,-0.08,-0.98,7.81,5.19,-0.06,16.77,-18.73,11.33,2
-0.24,-0.07,-0.99,3.60,2.93,1.16,17.08,-19.02,11.96,2
-0.23,-0.08,-0.99,0.79,4.33,0.79,16.93,-18.62,12.41,2
-0.24,-0.08,-0.97,1.77,2.50,0.49,16.66,-18.95,13.15,2
-0.25,-0.09,-0.98,1.22,0.73,1.10,16.46,-18.59,12.02,2
-0.25,-0.09,-0.98,0.00,3.30,0.85,16.63,-19.01,12.43,2
-0.26,-0.09,-0.97,0.24,2.81,1.04,17.09,-19.08,12.01,2
-0.26,-0.10,-0.98,2.87,-0.43,0.98,16.93,-18.49,11.89,2
-0.26,-0.10,-0.97,2.69,-2.87,2.81,16.74,-18.57,12.05,2
-0.26,-0.10,-0.97,2.14,-4.52,3.05,17.11,-18.91,13.73,2
-0.26,-0.10,-0.97,0.61,-6.84,5.07,17.30,-18.54,12.85,2
-0.24,-0.10,-0.97,8.12,-12.27,9.34,17.21,-19.23,13.27,2
-0.24,-0.10,-0.99,4.82,-11.90,7.63,17.42,-18.90,12.24,2
-0.21,-0.09,-0.97,17.76,-19.35,8.97,17.64,-19.81,12.72,2
-0.22,-0.09,-1.00,21.55,-25.21,8.18,18.58,-19.75,11.79,2
-0.18,-0.06,-1.02,24.35,-28.26,7.32,19.24,-20.78,12.11,2
-0.16,-0.03,-1.00,8.48,-27.89,4.39,19.93,-21.23,11.94,2
-0.13,-0.03,-1.00,2.26,-29.54,6.53,19.96,-21.13,11.13,2
-0.08,-0.06,-1.01,0.79,-35.10,7.69,21.04,-20.87,11.77,2
-0.08,-0.06,-0.99,-2.44,-18.37,3.42,22.00,-20.72,12.27,2
-0.06,-0.08,-1.02,-3.17,-22.22,9.22,21.59,-20.43,11.41,2
-0.03,-0.08,-1.01,-6.35,-27.71,10.56,22.53,-20.07,12.37,2
0.00,-0.09,-1.03,4.64,-30.58,6.41,23.06,-20.65,11.36,2
0.04,-0.09,-0.96,-1.16,-48.03,6.53,24.22,-20.34,12.07,2
0.08,-0.07,-1.00,0.18,-31.74,13.00,25.44,-19.87,12.54,2
0.10,-0.08,-1.02,9.83,-22.89,2.01,25.57,-20.48,11.87,2
0.12,-0.09,-0.97,-1.83,-25.27,5.62,26.64,-20.39,11.22,2
0.15,-0.08,-0.98,-32.23,-18.13,11.41,26.84,-20.54,10.88,2
0.16,-0.12,-1.00,-16.17,-7.81,5.68,27.00,-20.35,11.54,2
0.17,-0.13,-0.97,-24.54,-15.99,6.77,27.60,-19.57,11.80,2
0.17,-0.15,-0.99,4.39,-2.32,1.40,27.72,-19.24,11.02,2
0.17,-0.14,-0.98,2.50,-2.32,1.40,27.64,-18.38,12.28,2
0.16,-0.15,-0.97,2.01,-1.46,-0.49,27.49,-19.02,12.18,2
0.16,-0.12,-0.98,46.75,11.05,-10.19,27.39,-19.21,11.11,2
0.14,-0.11,-0.99,8.30,11.35,-4.52,26.94,-18.97,12.22,2
0.12,-0.09,-1.00,27.34,15.99,-0.43,25.56,-18.55,11.83,2
0.11,-0.08,-1.01,34.61,16.17,-1.65,24.99,-19.15,11.84,2
0.10,-0.05,-1.03,32.41,1.95,8.30,24.57,-20.13,11.38,2
0.10,-0.01,-0.99,26.00,-4.46,6.35,24.67,-20.86,10.44,2
0.10,0.05,-1.07,40.10,-5.31,13.43,24.62,-21.53,10.31,2
0.10,0.08,-0.97,54.02,-5.43,8.36,25.35,-23.74,9.67,2
0.12,0.12,-1.00,34.61,-3.72,5.31,24.73,-24.27,8.28,2
0.10,0.17,-0.97,52.00,5.43,4.15,24.50,-24.95,9.16,2
0.08,0.17,-0.95,25.45,21.24,-4.03,24.40,-26.17,8.15,2
0.06,0.22,-1.00,43.58,29.30,-4.82,23.72,-26.89,7.30,2
0.02,0.22,-0.98,16.30,20.69,-1.46,23.58,-27.65,7.63,2
0.01,0.27,-0.98,35.71,21.18,3.05,23.16,-28.20,6.26,2
-0.02,0.30,-0.98,13.12,9.16,1.65,22.77,-28.98,6.36,2
-0.02,0.27,-0.97,-7.75,8.06,2.56,22.84,-28.75,6.27,2
-0.03,0.22,-0.97,-67.81,5.13,9.22,22.78,-27.34,7.71,2
-0.03,0.08,-1.00,-108.15,5.74,6.41,22.60,-23.88,10.56,2
-0.02,0.02,-0.99,-71.41,5.43,5.25,21.89,-21.91,10.79,2
-0.06,-0.05,-1.02,-57.80,2.44,-2.44,21.86,-20.32,12.08,2
-0.04,-0.11,-1.00,-42.36,-1.40,5.13,21.17,-18.80,12.46,2
-0.05,-0.13,-1.00,-34.30,-5.98,0.43,21.45,-16.99,12.94,2
-0.05,-0.20,-1.00,-38.45,-5.13,4.52,21.47,-16.63,13.23,2
-0.04,-0.22,-0.99,-29.79,-6.47,1.46,21.70,-15.65,12.76,2
-0.03,-0.25,-0.96,-12.45,-6.16,1.95,22.14,-14.69,14.06,2
-0.03,-0.27,-0.99,-14.04,-3.66,1.71,21.77,-14.29,12.76,2
-0.03,-0.29,-0.95,-16.30,-1.22,2.93,21.92,-13.59,14.31,2
-0.03,-0.32,-0.98,-15.38,-0.37,1.83,21.79,-13.51,13.88,2
-0.04,-0.33,-0.97,4.09,2.01,-0.49,21.64,-11.57,14.23,2
-0.04,-0.35,-1.06,-52.43,2.75,5.74,22.03,-11.96,13.65,2
-0.02,-0.41,-0.85,-6.10,2.20,-1.46,21.62,-10.06,14.59,2
-0.04,-0.44,-0.92,8.06,-4.33,-1.71,22.08,-9.88,14.20,2
-0.04,-0.40,-0.90,35.52,3.85,-6.65,21.81,-10.58,14.39,2
-0.06,-0.38,-0.97,32.84,2.81,-7.32,21.74,-10.57,13.28,2
-0.07,-0.37,-0.92,16.24,5.68,-3.23,20.97,-11.07,13.96,2
-0.07,-0.36,-0.95,22.52,7.02,-3.78,21.01,-11.15,13.95,2
-0.09,-0.35,-0.93,17.40,7.14,-3.91,20.34,-11.51,14.21,2
-0.09,-0.33,-0.95,30.70,4.94,-4.64,20.39,-12.68,13.32,2
-0.12,-0.29,-0.94,48.16,11.84,-7.81,20.39,-13.62,12.89,2
-0.12,-0.23,-0.96,79.22,10.56,-7.87,19.80,-15.52,13.57,2
-0.14,-0.18,-0.98,47.30,0.31,-2.50,19.03,-17.07,12.43,2
-0.14,-0.12,-0.99,46.63,-1.16,2.08,19.14,-17.59,11.93,2
-0.14,-0.09,-0.98,28.93,-3.48,2.01,19.15,-19.15,12.85,2
-0.14,-0.09,-1.00,17.52,-6.10,3.17,18.58,-19.18,12.01,2
-0.13,-0.04,-1.00,36.07,-6.10,1.59,19.09,-19.79,11.38,2
-0.13,-0.02,-1.00,38.70,-6.96,2.20,20.00,-20.54,11.38,2
-0.13,0.01,-1.00,25.63,-4.94,0.73,19.86,-20.94,11.10,2
-0.12,0.02,-1.00,19.23,-5.62,1.95,19.85,-22.07,11.08,2
-0.12,0.04,-1.00,30.94,-8.97,3.36,20.81,-23.08,9.66,2
-0.11,0.08,-0.99,18.55,-7.75,2.99,20.79,-23.86,8.84,2
-0.11,0.08,-1.00,5.31,-8.79,7.14,21.78,-24.82,9.56,2
-0.10,0.07,-1.00,-3.30,-11.47,9.09,21.98,-24.67,11.77,2
-0.09,0.07,-1.02,-2.99,-12.70,4.03,21.83,-24.08,10.60,2
-0.08,0.04,-0.99,-18.55,-18.74,6.53,21.77,-23.94,10.83,2
-0.05,-0.01,-0.99,-55.91,-20.94,7.20,22.41,-23.25,11.58,2
-0.04,-0.00,-1.02,16.17,-14.34,-7.20,22.58,-22.71,10.83,2
-0.04,0.00,-0.99,1.46,-5.98,3.42,22.51,-23.01,11.77,2
-0.03,-0.01,-1.04,-10.56,-21.79,8.73,22.60,-22.60,10.83,2
-0.00,-0.03,-0.98,-2.81,-18.01,1.16,23.77,-22.25,11.51,2
0.00,-0.04,-1.03,-4.64,-11.72,4.21,23.91,-22.49,11.88,2
0.02,-0.05,-1.00,-8.79,-20.69,1.65,24.35,-21.64,10.95,2
0.03,-0.07,-1.01,-23.07,-23.93,7.57,24.45,-20.73,10.38,2
0.07,-0.08,-0.99,-17.70,-22.22,4.27,25.17,-20.10,11.18,2
0.07,-0.10,-0.99,-24.48,-10.01,7.75,25.85,-19.47,12.33,2
0.09,-0.13,-1.00,-7.39,-5.74,2.14,24.74,-18.79,12.70,2
0.08,-0.14,-0.99,0.55,5.62,-2.20,24.71,-18.23,13.10,2
0.07,-0.16,-0.99,-2.81,4.46,-3.11,24.17,-17.68,12.85,2
0.07,-0.16,-1.01,7.57,-3.23,1.28,24.22,-17.92,12.72,2
0.07,-0.15,-0.99,-0.61,-3.60,1.65,24.26,-17.09,12.32,2
0.07,-0.16,-1.01,5.86,-2.75,-0.06,24.13,-18.02,12.74,2
0.07,-0.16,-0.99,4.64,-4.03,1.65,24.76,-17.77,12.33,2
0.07,-0.16,-1.00,6.90,-5.62,2.56,24.87,-17.94,13.13,2
0.07,-0.16,-1.00,5.80,-6.53,2.20,25.12,-17.96,11.25,2
0.08,-0.15,-0.98,3.60,-4.58,1.65,25.15,-17.99,12.66,2
0.08,-0.16,-1.00,4.33,-0.67,-1.71,25.00,-18.27,11.85,2
0.07,-0.16,-0.97,1.71,-4.03,1.65,24.98,-17.40,13.55,2
0.08,-0.15,-1.00,7.57,-1.77,0.92,25.07,-18.20,12.48,2
0.07,-0.16,-1.00,2.87,-3.11,0.31,24.71,-18.73,11.95,2
0.08,-0.15,-1.00,7.87,0.18,-0.49,25.62,-18.19,11.05,2
0.07,-0.16,-1.00,6.29,0.31,-1.10,24.51,-17.63,12.72,2
0.07,-0.16,-1.00,4.70,0.79,-1.53,25.20,-17.64,11.62,2
0.07,-0.15,-1.00,4.39,-1.95,0.92,25.77,-17.91,13.10,2
0.07,-0.15,-0.99,4.64,-1.65,0.85,25.06,-18.25,11.89,2
0.07,-0.15,-1.00,4.94,-2.87,1.77,25.10,-18.57,11.62,2
0.07,-0.15,-0.99,4.88,-2.99,0.98,25.26,-18.44,12.99,2
0.06,-0.15,-0.99,3.72,-2.20,1.10,25.26,-18.09,12.43,2
0.07,-0.15,-1.00,4.82,-3.17,0.55,25.18,-18.18,12.19,2
0.07,-0.15,-1.00,6.16,-2.14,0.06,25.05,-18.42,11.99,2
0.07,-0.15,-0.99,5.13,-2.20,1.71,25.02,-18.30,13.34,2
0.07,-0.15,-1.01,5.74,-1.53,0.73,24.84,-18.27,11.47,2
0.06,-0.12,-0.98,26.92,-0.49,-3.97,24.35,-18.44,13.39,2
0.06,-0.12,-1.01,10.74,-2.01,-0.31,24.67,-18.41,11.46,2
0.06,-0.11,-1.00,9.03,-1.40,1.10,24.77,-18.43,12.32,2
0.06,-0.11,-1.00,15.38,0.79,-1.71,24.50,-18.59,12.62,2
0.05,-0.10,-0.99,3.97,-2.32,1.53,24.82,-18.86,12.23,2
0.05,-0.10,-0.99,13.85,-1.34,-0.24,24.66,-19.26,12.88,2
0.05,-0.08,-1.01,15.44,1.10,-0.92,24.04,-19.03,12.67,2
0.05,-0.07,-1.01,12.15,-1.04,0.31,24.19,-19.07,12.23,2
0.05,-0.07,-1.00,12.76,-1.28,-0.06,24.07,-19.81,12.73,2
0.04,-0.06,-1.00,17.40,2.20,1.34,24.46,-20.34,11.76,2
0.04,-0.05,-0.99,13.49,4.76,0.61,24.56,-19.71,12.81,2
0.02,-0.04,-1.01,3.42,6.53,1.10,23.78,-20.56,11.17,2
0.03,-0.06,-0.99,2.62,-12.82,11.41,24.08,-21.31,11.12,2
0.08,0.08,-1.14,7.63,14.71,8.30,23.77,-20.72,11.40,2
0.04,-0.05,-0.98,15.50,-2.99,-0.61,24.07,-20.75,11.50,2
0.03,-0.00,-1.01,0.61,-2.87,2.14,23.71,-21.37,10.31,2
0.04,-0.01,-1.02,-0.43,-1.22,2.01,23.80,-21.35,11.12,2
0.02,-0.02,-1.01,-3.05,-2.50,1.10,23.57,-21.00,11.07,2
0.03,-0.03,-1.01,3.23,-3.36,-0.31,24.05,-20.58,11.89,2
0.04,-0.03,-1.01,3.36,-2.26,0.92,23.84,-21.18,11.17,2
0.02,-0.05,-0.99,-1.89,-1.40,-1.34,24.11,-20.85,11.10,2
0.03,-0.02,-1.01,5.62,-1.22,1.10,24.05,-21.25,11.46,2
0.02,-0.05,-1.00,5.25,-1.46,1.22,23.82,-20.26,11.24,2
0.02,-0.04,-1.00,5.68,-1.77,-0.12,23.75,-20.68,11.46,2
0.03,-0.03,-1.01,11.29,-3.36,0.37,23.55,-21.04,11.60,2
0.03,-0.02,-1.01,5.80,-1.83,0.67,23.34,-20.73,11.63,2
0.02,-0.03,-0.99,4.64,-3.91,-1.10,23.96,-20.89,11.78,2
0.03,-0.06,-1.02,-1.16,-2.26,0.79,23.90,-21.08,10.95,2
0.02,-0.08,-1.00,7.93,-2.62,-3.36,23.34,-20.70,11.82,2
0.02,-0.03,-1.02,0.06,-2.99,-1.46,23.71,-20.90,12.54,2
-0.00,0.03,-1.01,9.16,-0.61,-2.44,23.71,-20.79,11.02,2
0.03,-0.06,-0.98,1.22,-2.87,-2.44,23.77,-21.03,11.57,2
0.03,-0.05,-1.01,6.65,-1.71,1.40,23.49,-20.75,12.51,2
0.02,-0.04,-1.01,1.10,-1.83,1.59,23.44,-20.67,11.98,2
0.03,-0.04,-1.00,5.00,-2.69,0.98,23.07,-20.84,11.69,2
0.02,-0.02,-1.00,4.52,-2.93,1.16,23.91,-20.92,11.39,2
0.03,-0.03,-1.00,7.14,-2.56,0.12,23.25,-20.80,11.84,2
0.02,-0.02,-1.01,10.86,-1.40,1.16,23.49,-20.84,11.89,2
0.02,-0.03,-1.00,5.80,-2.44,1.28,23.35,-20.70,11.88,2
0.02,-0.02,-1.01,5.74,-2.26,1.83,23.54,-21.18,10.88,2
0.02,-0.03,-1.00,6.96,-3.60,1.04,23.18,-20.72,11.21,2
0.02,-0.03,-1.01,2.99,-2.38,1.16,23.69,-20.43,11.94,2
0.02,-0.03,-1.01,6.23,-2.14,1.40,23.50,-20.74,11.76,2
0.00,-0.02,-0.99,11.72,-3.36,0.73,23.78,-20.85,11.08,2
0.03,-0.03,-1.00,5.37,-2.08,1.46,23.77,-21.59,11.68,2
0.03,-0.02,-1.01,3.85,-2.69,1.46,23.77,-21.03,12.01,2
0.02,-0.02,-1.01,5.86,-2.32,1.95,23.61,-21.06,11.13,2
0.02,-0.04,-1.01,7.51,-1.59,2.93,23.71,-21.18,11.83,2
0.01,-0.00,-1.00,2.32,-3.05,2.20,23.58,-20.91,11.65,2
0.02,-0.03,-1.02,-2.50,-2.50,0.98,23.85,-21.14,11.25,2
0.02,-0.01,-1.01,6.90,-2.20,1.46,23.32,-21.17,11.85,2
0.02,-0.03,-1.01,2.32,-4.82,0.18,23.65,-20.81,10.57,2
0.01,-0.03,-1.01,1.83,-1.77,2.20,23.47,-21.06,11.60,2
0.02,-0.02,-1.01,0.49,-3.42,2.44,24.04,-20.76,11.88,2
0.02,-0.03,-1.00,-0.31,-2.99,0.55,23.62,-20.79,10.60,2
0.02,-0.03,-1.01,1.65,-2.50,1.10,23.46,-20.68,11.60,2
0.02,-0.03,-1.01,4.46,-2.32,0.73,23.68,-20.69,11.67,2
0.02,-0.04,-1.01,3.54,-2.44,1.34,23.88,-20.76,11.65,2
0.02,-0.03,-1.01,3.48,-1.95,2.01,23.71,-20.91,12.01,2
0.02,-0.04,-1.01,-0.85,-3.23,0.67,23.45,-20.74,12.50,2
0.01,-0.05,-1.01,6.71,-2.56,1.53,23.52,-20.41,11.72,2
0.02,-0.03,-1.00,-2.56,-2.69,1.40,23.95,-20.21,11.79,2
0.02,-0.06,-1.00,7.26,-1.34,0.79,23.93,-20.86,12.05,2
0.02,-0.04,-1.01,1.89,-1.34,1.28,23.80,-19.75,11.46,2
0.02,-0.07,-1.01,4.15,-2.20,0.37,23.69,-20.69,11.19,2
0.01,-0.03,-1.00,3.91,-3.23,1.59,23.33,-20.74,10.97,2
0.02,-0.05,-1.01,0.18,-2.93,1.71,23.52,-20.61,11.68,2
0.02,-0.05,-1.01,5.92,-1.83,1.40,23.61,-20.40,11.58,2
0.02,-0.05,-1.01,2.62,-2.69,1.71,23.30,-20.18,11.17,2
0.02,-0.05,-1.01,4.39,-2.50,1.40,23.38,-20.40,11.83,2
0.02,-0.05,-1.01,2.32,-3.05,0.79,23.97,-20.31,12.02,2
0.02,-0.05,-1.01,3.23,-2.62,1.83,23.45,-20.25,11.01,2
0.02,-0.05,-1.00,8.06,-2.01,1.83,23.49,-20.30,12.37,2
0.02,-0.05,-1.01,2.14,-2.93,1.40,23.28,-20.76,11.39,2
0.02,-0.05,-1.02,2.99,-2.26,1.40,23.28,-20.85,11.54,2
0.02,-0.06,-1.01,4.21,-2.75,1.04,23.51,-20.41,11.66,2
0.02,-0.05,-1.01,7.08,-3.05,1.22,23.97,-20.19,11.60,2
0.02,-0.05,-1.01,3.48,-2.93,0.92,23.46,-20.17,11.79,2
0.02,-0.06,-1.01,7.08,-1.46,1.77,23.51,-20.75,11.33,2
0.01,-0.04,-1.01,4.21,-3.17,2.08,23.62,-20.52,12.35,2
0.02,-0.05,-1.00,3.91,-2.81,0.61,23.28,-20.10,12.39,2
0.01,-0.05,-1.01,7.02,-2.69,1.46,23.38,-19.80,12.01,2
0.02,-0.05,-1.01,3.11,-3.48,0.49,23.58,-20.04,11.39,2
0.01,-0.05,-1.01,6.35,-2.75,1.53,23.58,-19.87,11.52,2
0.02,-0.05,-1.00,5.98,-2.75,1.46,23.32,-19.93,11.32,2
0.02,-0.05,-1.01,4.52,-2.99,1.22,23.55,-20.10,11.79,2
0.02,-0.04,-1.01,6.35,-2.62,1.34,23.44,-20.58,11.41,2
0.02,-0.04,-1.01,3.11,-2.75,0.98,23.73,-20.45,11.77,2
0.02,-0.05,-1.01,5.86,-2.69,0.85,23.25,-20.08,11.27,2
0.02,-0.04,-1.01,4.52,-2.99,1.10,23.32,-20.34,11.41,2
0.02,-0.05,-1.01,4.33,-2.69,1.34,23.63,-20.40,12.38,2
0.02,-0.05,-1.00,4.39,-3.05,1.34,23.07,-19.81,12.90,2
0.02,-0.05,-1.01,5.13,-3.17,1.34,23.62,-20.59,11.88,2
0.02,-0.04,-1.01,3.11,-2.26,1.46,23.52,-20.14,11.68,2
0.02,-0.04,-1.01,6.04,-3.36,1.77,23.02,-20.17,11.13,2
0.01,-0.04,-1.00,0.31,-4.21,1.40,23.52,-19.80,11.30,2
0.02,-0.05,-1.02,3.78,-4.94,3.17,23.50,-19.89,11.69,2
0.03,-0.04,-1.01,1.83,-5.13,1.95,24.00,-19.73,11.25,2
0.03,-0.05,-1.01,3.72,-1.95,0.85,23.51,-20.15,11.32,2
0.03,-0.05,-1.01,4.33,-3.91,2.32,23.50,-19.48,11.23,2
0.04,-0.08,-1.00,7.26,-3.60,-0.73,24.19,-19.53,11.94,2
0.03,-0.05,-1.01,4.46,-2.87,1.59,24.21,-19.35,11.68,2
0.03,-0.05,-1.00,6.90,-2.56,0.61,23.79,-19.74,11.23,2
0.03,-0.05,-1.01,4.76,-2.20,0.85,23.78,-20.17,11.25,2
0.03,-0.05,-1.01,2.26,-3.60,1.34,23.78,-19.64,10.64,2
0.03,-0.05,-1.01,5.49,-2.38,0.43,23.86,-20.17,11.89,2
0.03,-0.05,-1.00,4.03,-3.23,1.59,23.55,-20.14,11.56,2
0.03,-0.05,-1.01,5.37,-2.50,0.98,24.16,-20.14,11.11,2
0.03,-0.05,-1.01,3.05,-3.42,1.53,23.91,-20.36,12.17,2
0.03,-0.05,-1.01,6.16,-2.08,1.22,23.69,-19.71,11.44,2
0.03,-0.05,-1.01,4.09,-2.50,2.01,24.01,-19.85,11.38,2
0.03,-0.05,-1.01,4.46,-3.23,0.92,24.26,-19.87,11.76,2
0.03,-0.05,-1.01,4.15,-2.62,0.92,23.83,-19.87,11.08,2
0.03,-0.04,-1.01,5.49,-3.05,1.28,23.71,-19.75,11.15,2
0.02,-0.04,-1.01,1.89,-2.93,1.22,23.67,-20.25,11.62,2
0.03,-0.06,-1.01,3.72,-3.30,1.40,23.30,-20.02,10.66,2
0.03,-0.04,-1.01,3.85,-2.81,0.73,23.57,-20.26,12.11,2
0.03,-0.06,-1.01,3.66,-2.26,1.46,23.35,-19.38,11.34,2
0.03,-0.05,-1.00,3.11,-2.14,1.34,23.23,-20.12,11.55,2
0.03,-0.05,-1.01,2.38,-3.60,0.55,23.10,-20.31,11.35,2
0.03,-0.06,-1.01,4.94,-2.50,0.43,23.23,-19.17,12.48,2
0.01,-0.07,-0.99,8.18,-2.32,0.98,23.14,-20.03,11.06,2
0.03,-0.05,-1.02,8.61,-4.94,-0.55,23.88,-20.42,11.33,2
0.01,-0.07,-1.01,7.51,-9.16,5.68,23.84,-20.35,11.55,2
0.03,0.04,-1.00,17.88,-16.36,6.96,24.00,-20.20,12.35,2
0.07,-0.04,-0.99,8.61,-9.83,2.50,23.95,-20.57,11.12,2
0.07,-0.01,-1.01,9.58,-3.23,1.71,24.18,-21.25,11.41,2
0.06,-0.04,-1.00,7.75,-2.69,2.14,24.39,-21.74,11.88,2
0.05,0.00,-1.00,10.80,-1.83,1.10,24.32,-20.83,11.47,2
0.06,-0.02,-1.00,3.23,-1.89,1.65,24.21,-21.23,11.21,2
0.05,-0.01,-1.01,7.57,-2.69,-0.06,24.78,-21.20,11.30,2
0.06,-0.01,-1.01,5.86,-2.50,0.61,24.91,-21.15,11.56,2
0.06,-0.01,-1.01,5.62,-2.26,0.98,24.72,-21.12,10.39,2
0.05,-0.00,-1.01,0.49,-3.36,0.73,24.61,-21.18,11.12,2
0.06,-0.01,-1.01,4.39,-2.44,0.61,24.40,-21.22,10.17,2
0.06,-0.02,-1.01,3.17,-3.11,0.98,24.54,-21.57,11.43,2
0.06,-0.00,-1.01,11.72,-2.75,1.10,24.37,-21.20,11.16,2
0.05,-0.01,-1.01,3.17,-2.44,-0.12,23.95,-20.92,10.53,2
0.08,-0.01,-1.01,12.33,-3.36,-2.56,24.65,-21.31,11.21,2
0.05,-0.02,-1.01,8.61,-3.85,-4.09,24.87,-21.25,10.46,2
0.06,-0.00,-1.01,7.51,-1.77,1.28,24.49,-21.51,11.34,2
0.05,0.01,-1.01,10.86,-2.93,0.61,24.67,-21.75,11.30,2
0.04,0.05,-1.01,2.50,-2.26,3.85,24.68,-21.83,11.29,2
0.06,0.00,-1.00,10.38,-2.50,2.75,24.30,-21.33,10.74,2
0.04,0.02,-1.02,3.66,-2.44,2.81,23.90,-21.74,11.72,2
0.05,0.05,-0.98,12.82,-2.75,0.85,24.21,-22.44,10.55,2
0.07,0.04,-1.00,10.07,-3.30,-0.43,24.44,-22.55,11.54,2
0.05,0.01,-1.02,5.37,-1.53,2.75,24.22,-22.38,11.28,2
0.05,0.04,-0.99,13.85,-4.03,2.62,24.27,-22.40,10.63,2
0.06,0.05,-1.01,7.32,-4.39,-1.28,24.35,-22.50,10.56,2
0.05,0.05,-1.00,5.92,-4.33,0.18,24.43,-22.73,10.03,2
0.05,0.03,-1.01,14.95,-2.62,-2.99,24.80,-22.22,10.55,2
0.06,0.04,-1.00,8.12,-2.75,0.18,24.62,-23.03,10.00,2
0.05,0.04,-1.00,0.24,-2.14,0.67,24.80,-22.53,9.95,2
0.05,0.06,-1.00,3.66,-2.14,1.40,24.50,-22.47,10.28,2
0.05,0.05,-1.01,-4.52,-2.01,-0.31,24.79,-22.00,10.93,2
0.06,-0.00,-0.98,-5.37,-1.28,-6.59,24.67,-22.39,10.75,2
0.07,0.02,-0.99,-16.17,-0.61,0.31,24.83,-21.84,10.42,2
0.03,0.01,-0.99,1.28,2.14,0.79,24.45,-21.77,11.77,2
0.03,-0.00,-1.02,-5.00,2.26,-1.10,24.32,-20.75,12.02,2
0.04,0.01,-0.99,7.45,-1.65,1.46,24.00,-21.57,10.57,2
0.06,0.02,-1.01,18.62,3.85,1.95,24.35,-21.97,11.65,2
0.02,0.01,-1.02,9.09,1.04,2.50,23.84,-21.79,10.39,2
0.03,0.02,-1.01,8.42,-2.87,0.61,23.78,-21.19,11.44,2
0.04,0.02,-1.01,17.40,-1.65,-0.67,24.18,-22.64,10.00,2
0.03,0.03,-1.02,10.99,0.06,2.44,24.41,-22.74,10.46,2
0.02,0.02,-1.02,14.89,-3.91,7.14,23.91,-22.50,10.84,2
0.04,0.04,-1.00,12.88,-1.22,0.79,23.93,-22.28,10.39,2
0.05,0.00,-0.97,5.49,-0.98,9.16,23.51,-22.86,10.36,2
0.02,0.11,-1.03,4.76,-2.93,4.33,23.68,-22.86,10.13,2
0.01,0.09,-1.01,7.45,-3.17,12.39,24.07,-23.01,9.94,2
0.02,-0.00,-1.01,12.15,0.06,-3.72,23.68,-22.96,10.03,2
0.02,0.10,-0.99,17.64,3.72,-2.75,24.13,-23.46,10.39,2
0.00,0.05,-1.01,-13.61,12.15,-1.04,23.91,-23.39,10.22,2
0.01,0.04,-1.03,-20.81,0.73,6.47,23.30,-22.41,11.19,2
0.02,0.02,-1.04,-5.80,-12.08,5.00,23.75,-22.85,11.28,2
-0.02,-0.05,-1.01,-94.30,-27.89,15.26,24.51,-21.97,11.95,2
0.02,-0.07,-0.99,-28.63,-1.46,10.99,24.05,-20.15,12.06,2
0.03,-0.04,-0.97,24.72,-2.62,1.22,23.99,-19.78,12.48,2
0.00,-0.10,-1.01,15.44,-1.71,1.59,24.08,-21.09,11.02,2
0.02,-0.03,-0.99,9.64,-1.04,-0.24,23.57,-20.74,11.02,2
0.02,-0.05,-1.03,21.30,-2.20,2.99,23.94,-21.55,10.68,2
0.02,-0.01,-1.00,15.56,-1.95,-0.92,24.78,-22.28,11.74,2
0.01,-0.03,-1.04,0.55,-0.73,3.60,23.99,-22.27,10.67,2
0.04,0.02,-0.99,0.92,-2.20,1.95,23.80,-22.16,10.93,2
-0.01,-0.02,-1.04,15.38,-10.38,-9.16,24.33,-22.17,11.06,2
0.01,-0.01,-1.00,16.85,-8.24,-15.01,24.62,-23.11,11.51,2
0.02,-0.01,-1.01,9.28,1.95,-5.98,25.55,-22.74,11.18,2
0.01,-0.00,-0.95,9.58,11.47,-7.32,25.51,-22.95,11.19,2
-0.01,0.02,-1.02,16.42,11.29,0.61,24.26,-23.19,11.90,2
-0.00,0.04,-1.03,14.95,3.30,7.57,24.78,-23.99,10.99,2
-0.02,0.01,-1.02,14.65,2.14,8.79,24.56,-24.41,11.34,2
-0.02,0.04,-1.09,-13.49,8.79,11.54,24.67,-23.88,10.55,2
-0.03,0.02,-0.98,5.19,4.94,3.91,24.02,-23.73,11.54,2
-0.04,0.03,-1.01,23.86,7.20,4.33,23.77,-24.35,11.79,2
-0.05,0.06,-1.02,15.01,-2.44,2.14,23.72,-25.11,10.39,2
-0.05,0.05,-1.01,-2.81,-5.55,1.22,23.46,-24.52,12.19,2
-0.04,0.04,-0.98,0.49,-10.80,-2.38,23.38,-24.15,11.24,2
-0.04,0.07,-1.00,16.05,-9.64,-4.21,23.88,-24.06,10.69,2
-0.03,0.07,-1.03,13.92,-4.88,-1.46,23.56,-24.15,10.88,2
-0.02,0.06,-1.00,19.10,-8.24,-4.58,23.89,-24.00,10.36,2
-0.03,0.10,-1.01,14.40,-5.92,-6.59,23.77,-25.11,10.14,2
-0.01,0.09,-1.00,1.59,-4.52,0.06,24.00,-25.51,9.45,2
-0.01,0.08,-1.01,-1.10,-3.91,2.14,23.93,-24.33,10.07,2
-0.01,0.08,-1.00,1.71,-2.87,5.68,23.62,-24.29,10.84,2
-0.01,0.09,-1.01,2.14,-3.85,5.86,23.66,-24.66,9.94,2
-0.01,0.09,-1.01,2.69,-3.42,2.20,22.86,-24.52,9.61,2
-0.02,0.09,-1.02,2.75,-3.54,4.64,23.63,-23.60,9.99,2
-0.02,0.08,-1.01,3.42,-3.54,2.50,23.43,-24.33,10.11,2
-0.01,0.08,-1.01,2.99,-3.36,1.83,23.62,-24.55,10.36,2
-0.00,0.07,-1.00,4.52,-2.50,1.16,23.69,-24.34,9.77,2
-0.01,0.07,-1.01,4.21,-2.62,1.77,23.90,-23.77,10.60,2
-0.01,0.07,-1.01,4.46,-2.69,2.32,23.18,-24.48,10.12,2
-0.01,0.08,-1.01,4.09,-2.99,1.95,23.77,-24.28,9.46,2
-0.01,0.07,-1.00,3.91,-2.93,1.71,23.89,-24.22,9.90,2
-0.01,0.07,-1.01,4.70,-2.99,1.83,23.50,-24.23,10.83,2
-0.01,0.08,-1.01,5.55,-3.05,1.77,23.43,-24.37,10.07,2
-0.01,0.07,-1.00,4.33,-2.93,1.77,23.62,-24.69,10.00,2
-0.01,0.08,-1.01,6.29,-3.11,3.85,23.29,-24.40,10.16,2
-0.01,0.08,-1.01,6.41,-2.93,2.56,24.01,-24.49,9.05,2
-0.01,0.08,-1.01,5.62,-3.05,2.01,23.60,-24.23,10.40,2
-0.01,0.08,-1.01,4.15,-2.99,1.59,23.45,-24.40,9.75,2
-0.01,0.08,-1.01,3.42,-2.93,1.65,23.73,-24.07,10.57,2
-0.01,0.08,-1.01,4.58,-2.93,1.53,23.28,-24.46,10.89,2
-0.01,0.08,-1.01,6.59,-2.26,0.61,23.21,-24.21,10.29,2
-0.01,0.09,-1.00,4.76,-2.69,1.59,23.50,-24.37,9.94,2
-0.01,0.08,-1.01,5.25,-2.69,1.28,23.38,-23.96,9.90,2
-0.01,0.08,-1.00,5.49,-2.38,0.79,23.28,-24.05,9.48,2
-0.02,0.09,-1.00,7.51,-2.44,0.24,23.03,-23.89,10.18,2
-0.01,0.09,-1.01,6.59,-2.75,2.01,23.46,-24.15,9.94,2
-0.01,0.09,-1.01,3.60,-2.93,1.83,23.12,-24.23,11.33,2
-0.01,0.09,-1.01,4.21,-3.11,2.08,23.17,-24.04,9.91,2
-0.01,0.09,-1.01,2.26,-2.99,2.26,23.43,-24.23,10.27,2
-0.01,0.09,-1.01,4.27,-2.87,1.34,22.99,-23.57,9.61,2
-0.01,0.09,-1.00,4.94,-2.62,1.16,22.75,-23.89,9.33,2
-0.01,0.09,-1.00,3.78,-2.81,1.65,23.12,-24.35,10.33,2
-0.01,0.09,-1.00,2.93,-2.87,1.77,23.49,-24.13,10.77,2
-0.01,0.09,-1.00,4.03,-2.81,1.46,23.40,-24.26,10.30,2
-0.01,0.09,-1.01,4.15,-2.69,1.40,23.61,-24.32,10.13,2
-0.01,0.08,-1.01,4.46,-2.87,1.59,23.38,-23.91,10.58,2
-0.01,0.09,-1.01,4.70,-2.75,1.34,23.43,-24.27,10.55,2
-0.01,0.08,-1.01,4.52,-2.81,1.46,23.56,-24.43,9.99,2
-0.01,0.09,-1.00,4.15,-2.93,1.77,22.85,-24.79,10.01,2
-0.01,0.09,-1.00,4.76,-2.93,1.34,23.49,-24.41,9.38,2
-0.01,0.09,-1.00,5.37,-2.50,1.10,23.19,-24.26,10.83,2
-0.01,0.09,-1.00,4.33,-2.75,1.22,23.18,-24.54,10.63,2
-0.01,0.09,-1.00,4.21,-2.87,1.77,23.56,-24.13,10.42,2
-0.01,0.09,-1.00,4.33,-2.75,1.40,23.99,-25.37,9.40,2
-0.01,0.09,-1.00,4.52,-2.81,1.40,23.49,-25.38,9.81,2
-0.01,0.09,-1.00,4.82,-2.75,1.53,24.08,-24.71,9.67,2
-0.01,0.09,-1.01,4.03,-2.87,1.59,23.74,-24.01,10.50,2
-0.01,0.09,-1.00,3.72,-2.75,1.46,23.34,-24.30,9.83,2
-0.01,0.09,-1.00,4.58,-2.62,1.34,23.95,-24.51,10.91,2
-0.01,0.09,-1.00,4.33,-2.87,1.16,23.66,-24.02,10.03,2
-0.01,0.09,-1.00,4.33,-2.93,1.22,23.62,-24.11,10.06,2
-0.01,0.09,-1.00,4.03,-2.93,1.40,22.96,-24.26,10.08,2
-0.01,0.09,-1.00,4.03,-2.69,1.46,23.73,-24.71,9.25,2
-0.01,0.09,-1.00,3.91,-2.87,1.46,23.82,-24.29,10.06,2
-0.01,0.09,-1.00,3.36,-2.93,1.53,23.83,-24.10,10.95,2
-0.01,0.08,-1.01,4.03,-2.87,1.34,23.34,-24.04,10.55,2
-0.01,0.08,-1.00,3.78,-2.93,1.53,23.17,-24.38,10.27,2
-0.01,0.08,-1.00,3.72,-2.87,1.46,23.67,-24.18,10.34,2
-0.01,0.08,-1.01,3.97,-2.93,1.22,23.43,-24.19,10.36,2
-0.01,0.09,-1.00,4.82,-2.62,0.85,23.38,-24.39,10.99,2
-0.01,0.08,-1.00,3.48,-2.87,1.53,24.01,-24.07,11.40,2
-0.01,0.08,-1.00,3.72,-2.69,1.34,23.66,-24.58,9.72,2
-0.01,0.08,-1.00,4.09,-2.87,1.40,24.16,-24.66,10.71,2
-0.01,0.08,-1.00,4.52,-3.05,1.40,23.39,-24.29,9.73,2
-0.01,0.08,-1.01,4.27,-2.93,1.40,23.51,-23.89,9.89,2
-0.01,0.08,-1.00,4.46,-2.87,1.53,23.86,-24.13,10.02,2
-0.01,0.08,-1.00,4.27,-2.69,1.34,23.97,-23.82,9.68,2
-0.01,0.08,-1.00,4.58,-2.62,1.10,23.68,-23.86,10.39,2
-0.01,0.08,-1.00,4.21,-2.81,1.40,23.83,-23.95,10.05,2
-0.01,0.08,-1.00,3.78,-2.99,1.34,23.12,-23.83,10.33,2
-0.01,0.08,-1.01,3.36,-2.75,0.98,23.51,-23.90,10.02,2
-0.01,0.09,-1.00,3.48,-2.14,0.31,23.79,-23.91,11.15,2
-0.01,0.08,-1.01,5.13,-2.26,0.73,23.49,-23.51,10.03,2
-0.01,0.08,-1.01,2.26,-2.38,1.40,23.84,-24.17,10.05,2
-0.01,0.07,-1.01,0.43,-2.08,0.67,23.90,-23.69,10.39,2
-0.01,0.08,-1.00,0.79,0.18,-0.43,23.62,-23.50,10.86,2
-0.01,0.07,-1.01,14.65,0.92,-0.79,23.72,-23.85,9.90,2
-0.02,0.09,-1.00,18.68,2.87,-2.38,23.52,-23.88,10.29,2
-0.01,0.09,-1.01,-1.53,-3.60,5.07,23.72,-24.44,9.99,2
-0.01,0.09,-1.02,-8.54,-3.11,7.63,23.19,-23.83,9.75,2
-0.02,0.06,-0.99,-2.32,-7.45,0.00,23.34,-23.75,9.86,2
-0.01,0.07,-0.99,10.50,-3.91,-1.28,23.50,-24.61,10.36,2
-0.02,0.08,-1.00,16.30,-4.09,-2.50,23.58,-24.05,9.99,2
-0.01,0.09,-1.00,6.59,-3.85,0.85,23.75,-24.10,9.81,2
-0.01,0.09,-1.00,2.50,-4.70,0.92,23.77,-23.74,10.18,2
-0.01,0.09,-0.99,6.10,-2.56,0.37,23.32,-23.85,9.74,2
-0.02,0.10,-0.98,2.26,-2.62,-1.65,23.99,-23.66,10.41,2
-0.01,0.09,-1.00,4.82,-2.14,-0.98,23.66,-23.83,10.10,2
-0.01,0.09,-1.00,7.87,-2.75,0.92,23.51,-24.32,8.70,2
-0.01,0.10,-0.99,5.13,-1.71,0.06,23.89,-24.38,10.08,2
-0.01,0.10,-1.02,4.33,-2.01,0.85,23.18,-24.05,10.16,2
-0.01,0.10,-1.01,5.25,-2.14,0.85,23.67,-23.77,10.30,2
-0.01,0.10,-1.00,3.23,-2.56,0.92,23.41,-23.83,10.49,2
-0.02,0.09,-1.01,6.96,-2.14,0.12,23.51,-24.13,10.40,2
-0.01,0.10,-1.00,5.55,-2.93,0.31,23.22,-24.22,10.12,2
-0.01,0.10,-1.01,8.36,-2.56,0.49,23.78,-24.22,10.23,2
-0.01,0.10,-0.99,5.00,-2.99,0.55,23.52,-24.55,10.49,2
-0.01,0.10,-1.00,4.88,-3.42,2.14,23.96,-24.60,10.62,2
-0.01,0.10,-0.99,3.97,-2.50,1.04,23.49,-24.93,9.23,2
-0.01,0.10,-1.00,0.92,-3.05,2.20,23.97,-24.37,9.99,2
-0.01,0.10,-1.02,1.16,-2.44,3.17,23.57,-24.39,10.50,2
-0.01,0.09,-0.97,1.22,-2.08,2.26,23.56,-24.49,10.63,2
-0.01,0.10,-1.06,6.16,-2.14,1.89,23.91,-23.88,10.06,2
-0.01,0.08,-0.97,1.28,-2.62,2.69,23.84,-24.16,10.41,2
-0.02,0.09,-1.00,-6.04,-4.27,7.75,23.71,-24.27,11.41,2
-0.01,0.08,-1.02,6.41,-2.32,4.21,23.91,-24.13,10.96,2
-0.01,0.08,-0.98,7.63,-3.97,2.62,23.80,-24.30,10.73,2
-0.01,0.10,-1.02,16.17,-1.16,1.77,23.55,-24.67,10.85,2
-0.01,0.10,-0.98,18.07,-1.77,1.65,23.22,-25.44,10.45,2
-0.02,0.12,-1.03,-3.72,-0.98,2.81,23.43,-24.96,10.18,2
-0.02,0.11,-0.99,-4.21,-3.97,4.09,23.61,-24.62,10.18,2
-0.02,0.10,-1.03,-7.63,-1.10,3.78,23.63,-25.63,10.85,2
-0.02,0.08,-1.00,2.14,-3.60,2.50,23.95,-24.40,10.51,2
-0.02,0.08,-1.00,-3.72,-4.21,3.91,24.22,-24.66,10.53,2
-0.01,0.07,-1.00,3.48,-2.62,4.70,23.73,-24.55,10.55,2
-0.02,0.07,-1.01,5.98,-0.24,2.20,23.32,-24.57,9.88,2
-0.01,0.07,-1.00,6.71,-1.53,2.20,23.28,-24.45,10.49,2
-0.01,0.08,-1.01,8.54,-2.14,0.12,23.35,-24.13,9.62,2
-0.02,0.08,-1.01,6.65,-2.01,-0.06,23.10,-24.11,10.47,2
-0.02,0.08,-1.00,4.33,-2.50,0.37,23.43,-23.84,10.52,2
-0.02,0.08,-1.01,5.07,-2.99,-0.24,23.54,-23.43,11.05,2
-0.02,0.08,-1.01,5.43,-2.69,0.43,22.97,-23.86,9.96,2
-0.02,0.08,-1.01,4.88,-2.32,0.67,23.02,-24.04,10.61,2
-0.02,0.08,-1.01,4.46,-2.26,1.10,23.16,-23.88,9.62,2
-0.02,0.08,-1.01,4.88,-2.62,0.73,23.13,-23.94,9.80,2
-0.02,0.08,-1.00,4.33,-2.56,0.49,22.78,-23.88,10.24,2
-0.02,0.08,-1.01,3.85,-2.81,1.04,23.47,-24.07,9.91,2
-0.02,0.08,-1.01,4.58,-2.20,0.31,23.07,-24.28,9.81,2
-0.02,0.09,-1.01,4.46,-2.44,0.24,23.41,-23.75,10.21,2
-0.02,0.08,-1.00,4.64,-2.26,0.73,23.34,-24.06,11.88,2
-0.02,0.08,-1.01,3.97,-2.69,0.67,23.23,-24.68,10.61,2
-0.02,0.08,-1.01,3.85,-2.93,0.92,23.40,-24.44,10.35,2
-0.02,0.08,-1.01,5.25,-2.50,0.85,23.19,-24.26,10.58,2
-0.02,0.08,-1.01,4.52,-2.81,1.28,23.36,-24.72,8.64,2
-0.02,0.08,-1.00,3.66,-2.87,1.16,23.39,-24.79,10.42,2
-0.02,0.08,-1.00,3.78,-2.93,1.22,22.58,-24.43,10.49,2
-0.02,0.08,-1.01,3.72,-3.36,1.53,23.58,-24.39,10.66,2
-0.02,0.08,-1.00,5.19,-2.32,0.92,22.73,-24.41,9.78,2
-0.02,0.08,-1.01,3.54,-3.11,1.53,22.72,-24.44,11.72,2
-0.02,0.08,-1.01,5.31,-2.38,1.04,23.08,-24.58,10.13,2
-0.02,0.08,-1.01,3.66,-2.99,1.22,23.22,-24.04,10.06,2
-0.02,0.08,-1.01,3.42,-2.87,1.46,22.85,-24.82,10.66,2
-0.02,0.08,-1.01,3.85,-3.05,1.40,23.51,-24.35,11.06,2
-0.02,0.08,-1.01,3.78,-2.81,1.40,23.32,-24.55,9.94,2
-0.02,0.08,-1.01,3.60,-2.93,1.77,23.52,-24.13,10.53,2
-0.02,0.08,-1.01,4.70,-2.20,0.79,23.72,-24.08,10.80,2
-0.02,0.08,-1.01,5.07,-2.69,1.28,23.25,-24.19,10.12,2
-0.02,0.08,-1.01,4.58,-2.69,1.59,23.63,-24.68,10.67,2
-0.02,0.08,-1.01,3.17,-2.93,1.77,23.47,-24.26,10.35,2
-0.02,0.08,-1.00,4.15,-2.75,1.46,22.89,-24.10,10.61,2
-0.02,0.08,-1.01,5.31,-2.75,1.28,23.01,-23.99,9.92,2
-0.02,0.08,-1.01,4.33,-2.87,1.59,23.41,-24.23,9.97,2
-0.02,0.08,-1.01,5.00,-2.87,1.40,23.71,-24.06,10.27,2
-0.02,0.08,-1.01,4.58,-2.81,1.28,23.14,-24.15,10.38,2
-0.02,0.08,-1.01,4.46,-2.93,1.59,23.24,-23.80,10.06,2
-0.02,0.08,-1.01,5.31,-2.50,1.53,23.12,-23.91,9.95,2
-0.02,0.08,-1.01,4.03,-2.99,1.53,23.66,-23.69,11.07,2
-0.02,0.08,-1.00,3.36,-3.11,1.59,23.13,-24.24,10.57,2
-0.02,0.08,-1.01,3.30,-2.99,1.16,24.07,-23.63,11.91,2
-0.02,0.08,-1.01,4.76,-2.81,1.34,23.39,-24.65,11.28,2
-0.02,0.08,-1.01,5.86,-2.44,1.16,23.25,-23.72,10.00,2
-0.02,0.08,-1.01,4.64,-2.75,1.59,22.71,-24.23,10.36,2
-0.02,0.08,-1.01,3.60,-2.56,1.71,23.01,-23.90,10.55,2
-0.02,0.08,-1.01,4.39,-2.69,1.65,23.49,-24.12,9.97,2
-0.02,0.08,-1.01,3.97,-2.87,1.53,23.34,-24.34,9.72,2
-0.02,0.08,-1.01,5.19,-2.50,1.28,23.21,-23.83,9.90,2
-0.02,0.08,-1.01,4.46,-2.75,1.46,23.24,-24.28,10.25,2
-0.02,0.08,-1.01,4.33,-2.81,1.34,23.50,-23.79,10.22,2
-0.02,0.08,-1.01,4.64,-2.62,1.10,23.30,-24.16,10.31,2
-0.02,0.08,-1.01,3.97,-2.93,1.65,23.54,-24.21,10.36,2
-0.02,0.08,-1.00,4.58,-2.75,1.34,23.95,-23.52,9.52,2
-0.02,0.08,-1.01,4.21,-2.62,1.71,23.50,-24.21,10.64,2
-0.02,0.08,-1.00,3.85,-2.93,1.83,23.63,-24.39,11.15,2
-0.02,0.08,-1.01,4.94,-2.69,1.34,23.61,-24.17,10.62,2
-0.02,0.08,-1.01,5.25,-2.50,1.22,23.99,-24.44,10.40,2
-0.02,0.08,-1.01,5.55,-2.50,1.71,23.94,-24.29,11.08,2
-0.02,0.08,-1.01,4.46,-2.69,1.40,23.77,-24.57,10.16,2
-0.02,0.08,-1.01,3.97,-2.75,1.77,23.43,-24.06,10.34,2
-0.02,0.08,-1.01,4.88,-2.56,1.65,23.61,-24.84,9.83,2
-0.02,0.08,-1.01,4.76,-2.62,1.53,23.46,-24.24,10.05,2
-0.02,0.08,-1.01,4.64,-2.75,1.83,23.67,-24.68,10.95,2
-0.02,0.08,-1.00,4.27,-2.14,2.14,23.57,-24.39,10.02,2
-0.02,0.09,-1.01,5.07,-2.38,1.77,23.82,-24.57,10.90,2
-0.02,0.08,-1.01,3.91,-2.75,1.53,23.57,-24.44,10.25,2
-0.02,0.09,-1.01,4.39,-2.69,1.40,23.63,-24.39,11.35,2
-0.02,0.08,-1.01,4.15,-2.81,1.71,23.10,-24.85,10.61,2
-0.02,0.08,-1.01,4.33,-2.87,1.40,23.67,-24.08,10.78,2
-0.02,0.08,-1.01,4.94,-2.56,1.65,23.65,-24.51,10.63,2
-0.02,0.08,-1.01,4.70,-2.69,1.59,23.47,-24.52,10.53,2
-0.02,0.09,-1.00,7.81,-1.46,0.61,23.25,-24.54,11.34,2
-0.02,0.09,-1.01,8.12,-1.71,1.22,23.22,-24.69,10.99,2
-0.02,0.09,-1.00,5.31,-2.32,2.32,23.60,-24.73,10.80,2
-0.02,0.09,-1.01,-2.69,-3.60,3.60,23.50,-25.04,10.63,2
-0.03,0.09,-1.00,7.57,-2.99,0.37,23.91,-25.35,10.56,2
-0.03,0.09,-1.01,-0.31,-3.48,1.95,23.28,-25.17,10.33,2
-0.02,0.09,-1.01,9.77,-0.98,-1.10,23.78,-24.33,10.46,2
-0.03,0.09,-1.01,5.43,-0.85,-2.56,23.41,-24.65,10.89,2
-0.03,0.08,-1.02,0.55,-3.30,1.28,23.74,-24.45,11.91,2
-0.03,0.08,-1.02,-10.56,-2.38,3.85,24.01,-24.04,9.88,2
-0.03,0.06,-0.99,-24.05,-2.81,7.63,23.55,-23.82,11.17,2
-0.02,0.02,-1.00,-19.47,-3.91,5.13,23.17,-22.58,11.56,2
-0.01,-0.00,-1.01,-27.89,-5.55,7.63,23.28,-22.06,10.86,2
-0.02,-0.04,-1.01,-19.47,-5.43,5.68,23.24,-21.23,12.92,2
-0.01,-0.05,-0.99,-2.14,-3.30,0.92,22.92,-20.56,12.11,2
-0.01,-0.05,-1.01,1.16,-3.42,1.65,23.16,-20.31,13.13,2
-0.01,-0.07,-1.00,-14.40,-4.33,4.39,22.81,-20.30,12.55,2
-0.01,-0.09,-1.01,-4.52,-4.58,2.44,22.77,-19.06,12.88,2
-0.00,-0.10,-1.01,-22.28,-5.62,5.68,22.69,-18.69,13.40,2
-0.00,-0.12,-0.98,-7.81,-4.03,2.08,22.74,-18.01,13.11,2
-0.01,-0.13,-1.01,-10.31,-3.11,3.17,22.40,-18.31,14.12,2
-0.01,-0.15,-1.02,-10.19,-3.42,2.01,22.58,-16.83,13.31,2
0.00,-0.17,-1.01,-7.57,-2.99,1.71,22.56,-16.48,13.49,2
-0.01,-0.18,-0.99,-7.81,-2.62,2.44,22.67,-16.98,12.99,2
-0.01,-0.20,-1.01,-12.39,-2.14,5.19,22.16,-16.16,14.50,2
0.00,-0.21,-0.97,-23.86,-3.17,4.76,22.42,-15.53,13.67,2
0.00,-0.23,-0.97,-7.02,-3.54,2.26,22.50,-14.66,13.54,2
0.00,-0.25,-0.99,-8.00,-3.36,2.69,22.25,-14.82,14.25,2
-0.00,-0.26,-0.98,-4.76,-2.99,1.59,22.77,-13.75,13.98,2
0.00,-0.26,-0.98,-1.53,-2.69,1.77,21.77,-13.65,13.94,2
0.00,-0.28,-0.99,-3.05,-2.69,2.99,22.58,-13.78,13.68,2
0.01,-0.29,-0.96,-6.77,-2.75,1.46,22.18,-13.27,15.01,2
0.01,-0.29,-0.97,-4.21,-2.99,1.53,22.18,-12.51,14.77,2
-0.00,-0.31,-0.96,-18.49,-4.52,3.60,21.85,-12.85,14.89,2
0.01,-0.32,-0.95,-12.15,-3.85,3.85,22.16,-12.04,13.88,2
0.01,-0.34,-0.96,9.95,-2.01,2.26,21.89,-11.85,13.93,2
0.01,-0.33,-0.95,1.22,-2.38,1.65,22.24,-11.95,13.78,2
0.01,-0.34,-0.96,-0.98,-3.11,1.46,22.55,-11.69,14.28,2
0.01,-0.34,-0.95,7.14,-2.87,0.79,22.01,-12.17,14.81,2
0.01,-0.34,-0.95,2.62,-2.44,1.46,22.19,-11.62,14.70,2
0.01,-0.34,-0.95,8.06,-2.75,0.55,22.56,-11.91,14.07,2
0.01,-0.33,-0.96,10.07,-2.99,0.31,22.74,-11.66,14.48,2
0.01,-0.33,-0.96,7.39,-2.62,0.55,22.36,-12.39,15.14,2
0.01,-0.33,-0.96,10.99,-3.17,1.04,22.72,-12.81,14.03,2
0.01,-0.32,-0.96,13.55,-2.44,-0.24,22.67,-12.39,14.86,2
0.01,-0.32,-0.96,11.11,-2.20,1.16,22.69,-13.01,14.73,2
0.01,-0.31,-0.97,12.88,-2.32,1.04,21.96,-12.93,15.28,2
0.01,-0.30,-0.99,16.05,-2.99,-0.85,22.34,-13.04,13.85,2
-0.00,-0.27,-0.99,25.70,-3.11,-5.86,22.92,-12.90,14.84,2
0.01,-0.27,-0.98,18.68,-2.75,-0.31,22.94,-13.92,14.09,2
0.01,-0.24,-0.96,18.43,-3.23,-0.79,22.33,-14.12,14.90,2
0.01,-0.23,-1.00,47.06,-2.26,-3.05,22.78,-15.39,14.66,2
0.01,-0.19,-0.99,32.17,-2.87,-2.20,22.99,-16.53,13.02,2
0.01,-0.13,-1.00,70.31,0.49,-2.87,23.25,-18.33,14.23,2
-0.00,-0.08,-1.02,50.11,-1.40,-2.62,23.34,-19.30,12.32,2
-0.01,-0.03,-1.01,67.26,1.53,-2.69,23.13,-20.92,11.30,2
-0.01,0.02,-1.00,50.17,-0.79,0.00,23.28,-22.91,11.78,2
-0.01,0.05,-1.03,37.96,1.04,1.40,23.43,-23.71,10.36,2
-0.01,0.11,-1.02,39.37,-0.12,-1.77,23.60,-24.63,10.40,2
-0.02,0.14,-1.01,33.94,-0.24,1.28,24.07,-25.40,9.38,2
-0.02,0.15,-0.98,31.86,-1.53,0.55,23.94,-26.46,9.91,2
-0.02,0.19,-1.00,29.11,-1.04,2.50,23.89,-26.99,9.02,2
-0.03,0.21,-0.99,26.06,-2.01,1.95,24.07,-28.19,9.12,2
-0.03,0.24,-0.96,46.14,-2.99,4.21,24.04,-28.86,8.48,2
-0.03,0.27,-0.97,16.30,-3.48,2.50,23.72,-29.19,7.37,2
-0.03,0.28,-0.97,22.28,-3.36,0.61,24.00,-29.46,7.35,2
-0.03,0.29,-0.97,5.13,-2.75,1.89,23.94,-29.19,7.40,2
-0.02,0.29,-0.97,8.97,-1.71,1.16,23.46,-29.68,7.14,2
-0.03,0.29,-0.96,6.71,-0.61,1.28,23.52,-29.21,6.71,2
-0.03,0.29,-0.96,-0.37,-1.83,2.08,23.57,-29.17,6.93,2
-0.03,0.28,-0.97,-6.96,-2.44,3.23,23.80,-29.55,7.62,2
-0.03,0.27,-0.98,-13.31,-2.32,3.11,23.61,-28.25,6.69,2
-0.02,0.24,-0.98,-36.80,-6.53,5.31,23.35,-27.51,8.90,2
-0.02,0.19,-1.02,-40.71,-17.09,7.93,23.18,-26.64,8.74,2
-0.00,0.14,-0.98,-16.60,-23.44,7.87,22.72,-25.26,9.56,2
0.02,0.13,-0.99,-45.35,-30.09,5.31,23.60,-24.02,10.02,2
0.04,0.08,-1.00,-25.33,-13.12,4.94,23.25,-23.44,10.60,2
0.05,0.05,-1.01,-14.59,-5.80,4.88,23.90,-23.01,11.87,2
0.05,0.02,-1.03,-2.44,-10.93,6.41,24.19,-22.69,11.50,2
0.07,0.03,-0.99,1.04,-13.98,6.90,24.61,-23.24,10.64,2
0.08,0.03,-1.00,0.43,-9.22,3.60,24.74,-23.01,12.05,2
0.08,-0.00,-1.02,-33.75,-11.96,4.21,24.74,-22.97,11.52,2
0.09,-0.05,-1.01,-33.33,-11.66,6.10,25.95,-21.24,11.76,2
0.10,-0.06,-1.01,-33.45,-4.52,4.94,25.28,-20.78,11.43,2
0.10,-0.09,-1.00,-24.41,3.23,-2.44,25.82,-19.80,12.19,2
0.08,-0.10,-0.97,15.81,13.18,-15.44,25.09,-19.63,12.94,2
0.06,-0.12,-0.99,3.60,25.27,-17.94,24.99,-19.57,12.78,2
0.01,-0.14,-0.93,8.73,35.58,-12.51,24.39,-18.96,12.60,2
-0.01,-0.13,-1.11,43.03,14.04,-11.54,23.45,-20.36,13.85,2
-0.02,-0.08,-0.97,35.40,8.18,-3.60,23.11,-20.72,12.62,2
-0.03,-0.03,-1.02,48.28,9.64,-0.67,24.04,-22.80,12.00,2
-0.04,0.02,-1.01,51.76,2.99,-1.16,23.93,-24.11,12.65,2
-0.05,0.04,-1.00,14.22,-0.67,-0.67,24.04,-24.83,11.54,2
-0.04,0.06,-1.01,9.89,-5.49,1.28,23.12,-24.05,11.98,2
-0.04,0.05,-1.01,2.32,-8.30,8.54,23.13,-24.45,11.01,2
-0.05,0.04,-1.03,-6.47,-9.64,11.23,22.77,-23.23,11.65,2
-0.02,0.03,-0.99,-6.65,-11.23,7.20,22.01,-22.28,11.65,2
-0.00,0.03,-1.03,4.15,-12.39,3.97,22.22,-21.59,11.16,2
0.00,0.03,-1.00,6.23,-16.78,0.55,22.89,-22.27,11.71,2
-0.02,0.02,-1.03,4.03,-11.78,0.98,22.90,-22.75,11.54,2
-0.02,0.01,-0.99,9.16,-1.77,-7.51,23.41,-22.01,12.82,2
