ax,ay,az,gx,gy,gz,mx,my,mz,label
0.99,0.10,0.02,4.70,-2.01,2.62,45.31,1.10,-12.32,5
0.98,0.10,0.00,3.78,-2.69,1.65,45.00,0.95,-12.49,5
0.98,0.10,0.01,3.97,-2.50,1.71,44.58,1.32,-12.40,5
0.98,0.10,0.01,5.25,-2.81,0.67,44.58,0.34,-11.62,5
0.98,0.10,0.01,1.04,-2.56,0.37,44.70,0.92,-12.99,5
0.99,0.09,0.02,2.99,-3.42,1.77,44.96,0.46,-13.21,5
0.98,0.10,0.00,0.73,-2.62,1.71,44.62,1.44,-12.01,5
0.99,0.09,0.01,1.89,-2.56,0.73,45.02,1.18,-12.82,5
0.99,0.10,0.01,2.01,-2.14,0.92,45.13,0.77,-14.22,5
0.99,0.09,0.01,3.30,-2.99,1.16,44.58,0.31,-12.85,5
0.98,0.10,0.01,1.40,-2.93,0.67,44.78,1.03,-13.12,5
0.99,0.09,0.01,5.68,-3.48,0.67,44.71,0.66,-12.17,5
0.99,0.09,0.01,0.12,-2.62,1.71,45.19,0.77,-12.23,5
0.99,0.10,0.01,-0.24,-2.32,2.38,44.64,0.74,-13.10,5
0.99,0.10,0.00,1.77,-2.32,0.73,45.26,0.88,-12.71,5
0.98,0.09,0.00,1.89,-2.56,2.62,44.79,0.82,-13.42,5
0.98,0.11,-0.00,-0.55,-2.01,1.83,44.73,1.35,-12.61,5
0.98,0.07,0.01,-2.62,-2.99,0.61,44.63,1.38,-13.06,5
0.98,0.09,0.00,2.93,-2.01,1.77,44.40,1.04,-12.27,5
0.98,0.11,-0.01,-0.12,-2.01,1.65,44.86,0.95,-13.49,5
0.99,0.08,0.01,3.54,-2.81,1.34,44.51,0.95,-12.88,5
0.98,0.09,0.00,4.33,-3.42,1.71,44.63,1.23,-13.85,5
0.98,0.09,0.00,1.95,-2.81,1.10,44.63,0.51,-14.78,5
0.99,0.09,0.01,5.68,-2.26,0.79,45.13,0.79,-13.66,5
0.99,0.10,-0.00,2.14,-2.93,2.32,44.67,0.90,-13.60,5
0.99,0.09,0.01,4.21,-3.05,0.73,45.14,0.83,-13.24,5
0.99,0.09,0.00,3.36,-2.75,0.92,44.89,1.10,-13.64,5
0.98,0.09,0.00,1.77,-1.95,2.14,44.57,0.72,-12.56,5
0.99,0.09,0.01,5.74,-3.60,1.04,45.24,0.77,-12.93,5
0.98,0.08,0.00,4.15,-1.95,2.26,44.52,0.85,-12.87,5
0.99,0.11,-0.00,5.74,-3.42,0.85,44.49,0.79,-13.21,5
0.99,0.08,0.01,3.97,-3.48,0.12,44.59,0.71,-13.68,5
0.98,0.08,0.00,5.43,-2.69,2.32,44.98,1.11,-13.13,5
0.99,0.10,-0.00,3.48,-2.20,1.22,44.35,0.72,-14.45,5
0.99,0.08,0.00,2.81,-2.26,1.83,44.97,0.01,-13.40,5
0.98,0.10,-0.00,4.03,-3.30,2.38,45.25,0.61,-12.94,5
0.98,0.08,0.01,7.02,-2.69,0.06,44.80,0.61,-14.32,5
0.99,0.09,-0.00,3.85,-2.69,1.83,44.76,0.92,-12.46,5
0.99,0.11,-0.00,4.76,-2.99,1.34,44.92,0.46,-13.53,5
0.99,0.09,0.00,4.58,-3.42,0.37,44.86,0.68,-12.76,5
0.99,0.09,0.00,1.59,-2.01,1.95,44.68,0.21,-12.83,5
0.98,0.09,-0.01,3.23,-3.05,0.55,44.81,1.14,-13.24,5
0.98,0.08,0.01,3.66,-3.30,0.24,44.84,0.72,-13.05,5
0.99,0.09,-0.00,3.78,-0.92,2.56,45.13,0.57,-12.95,5
0.98,0.10,-0.01,2.99,-3.72,1.28,44.85,0.67,-13.22,5
0.99,0.08,0.01,7.20,-3.42,0.43,44.97,0.90,-13.38,5
0.98,0.11,0.02,-1.77,-1.16,8.12,44.89,0.68,-13.79,5
0.99,0.11,-0.00,4.70,-2.75,1.16,44.52,0.60,-13.35,5
0.99,0.07,0.01,6.04,-2.87,1.04,45.03,0.94,-13.75,5
0.98,0.10,-0.01,3.91,-1.89,2.44,45.03,1.38,-13.77,5
0.99,0.09,0.00,5.62,-3.36,-0.24,44.87,0.99,-12.95,5
0.99,0.08,0.00,2.87,-2.44,2.14,45.04,0.81,-13.43,5
0.98,0.09,-0.01,3.91,-2.32,0.92,45.28,1.29,-13.24,5
0.99,0.10,-0.00,4.52,-2.44,1.71,44.73,1.20,-14.53,5
0.99,0.09,0.00,2.56,-2.99,1.34,44.69,0.24,-13.31,5
0.99,0.09,0.01,4.88,-2.56,2.50,44.67,0.71,-13.94,5
0.98,0.10,-0.01,3.17,-2.62,1.04,45.39,-0.11,-13.48,5
0.99,0.09,-0.00,2.32,-1.89,2.20,44.84,0.50,-14.28,5
0.99,0.09,0.01,7.87,-3.42,1.46,44.67,0.78,-13.46,5
0.99,0.10,-0.01,2.87,-1.59,2.62,44.26,1.06,-14.16,5
0.98,0.08,0.00,3.23,-1.77,0.98,44.87,0.61,-13.98,5
0.99,0.09,-0.01,0.73,-0.98,2.87,45.26,-0.17,-14.14,5
0.98,0.08,-0.00,1.65,-0.85,3.72,45.02,0.88,-13.18,5
0.98,0.10,-0.03,-1.34,2.20,5.80,44.79,0.32,-12.72,5
0.99,0.10,-0.00,1.22,0.43,5.19,44.49,0.05,-13.04,5
0.98,0.12,-0.04,1.34,1.77,2.62,44.58,0.60,-13.65,5
0.96,0.14,-0.02,3.78,-1.40,1.53,44.97,0.56,-14.39,5
0.98,0.09,-0.01,1.71,-3.54,-3.05,44.63,0.88,-12.29,5
1.00,0.04,0.00,3.48,-3.23,-2.32,45.19,1.23,-13.11,5
0.98,0.10,-0.06,1.71,-3.11,-1.10,45.34,1.18,-13.64,5
0.98,0.06,-0.01,4.39,-4.82,-0.67,45.00,1.14,-13.28,5
0.99,0.09,-0.03,1.89,-1.53,4.88,44.79,0.68,-14.06,5
0.98,0.12,-0.03,6.10,-4.52,3.72,45.25,0.02,-12.71,5
1.00,0.11,0.03,4.27,-0.85,-1.77,44.79,0.68,-12.40,5
0.97,0.10,-0.04,5.55,0.43,-2.81,44.69,0.38,-12.77,5
0.99,0.09,-0.02,0.73,-2.93,2.44,44.07,0.43,-13.50,5
0.99,0.08,-0.00,6.59,-1.16,-0.18,44.34,-0.04,-13.01,5
0.98,0.08,-0.03,4.58,1.59,2.20,44.93,0.92,-12.38,5
0.97,0.11,-0.06,3.97,-2.75,1.34,45.01,0.67,-12.82,5
0.99,0.08,-0.01,5.86,-4.27,0.98,44.73,0.39,-13.22,5
0.98,0.09,-0.02,3.30,-2.44,1.65,44.81,0.40,-13.09,5
0.98,0.10,-0.03,2.08,-2.56,2.14,44.63,0.55,-13.37,5
0.98,0.08,-0.02,5.55,-2.08,-1.16,45.00,0.51,-13.39,5
0.98,0.11,-0.02,2.50,-4.70,-1.59,44.23,0.39,-13.73,5
0.97,0.07,-0.04,3.54,0.18,1.65,44.07,0.23,-13.51,5
0.98,0.09,-0.05,2.32,-1.53,2.50,44.53,0.96,-14.42,5
0.99,0.10,-0.03,5.37,-3.48,-0.31,44.51,0.38,-12.99,5
0.99,0.06,-0.01,4.27,-3.78,0.98,43.80,-0.05,-13.98,5
0.97,0.08,-0.05,3.91,-2.26,2.14,44.63,0.70,-12.73,5
0.99,0.09,-0.03,4.58,-4.33,0.79,44.65,0.94,-13.37,5
0.98,0.06,-0.01,6.16,-2.81,0.79,44.74,1.01,-13.82,5
0.99,0.10,-0.03,4.58,-2.38,2.99,44.78,0.79,-12.72,5
0.98,0.09,-0.03,3.42,-2.69,1.71,44.52,0.54,-12.85,5
0.99,0.09,-0.02,5.31,-2.69,0.73,44.51,0.74,-12.95,5
0.98,0.09,-0.03,3.48,-1.53,1.04,44.81,0.95,-12.46,5
0.98,0.09,-0.03,5.13,-2.26,1.40,44.47,1.11,-12.88,5
0.99,0.08,-0.05,6.23,-4.33,-3.48,44.91,1.18,-12.95,5
1.00,0.09,-0.02,7.32,-4.15,-2.08,44.69,1.25,-12.77,5
0.98,0.07,-0.02,6.04,-4.09,-1.89,44.95,1.21,-14.18,5
0.99,0.07,-0.02,9.77,-4.33,-2.20,44.19,1.33,-13.31,5
0.99,0.09,-0.02,6.23,-3.54,-1.46,45.00,1.64,-13.98,5
0.98,0.05,-0.02,10.31,-5.25,-1.71,44.60,1.54,-13.48,5
0.99,0.08,-0.01,10.31,-3.60,4.09,44.52,1.11,-12.76,5
0.98,0.08,-0.02,6.96,-2.93,2.75,44.31,1.31,-13.64,5
1.00,0.06,-0.01,14.53,-3.30,1.10,44.56,0.92,-12.74,5
0.99,0.09,-0.01,29.30,-5.92,4.52,44.73,0.37,-13.11,5
0.98,0.07,-0.01,28.50,-5.13,2.14,45.34,0.42,-12.79,5
1.00,0.08,0.00,36.80,-4.94,5.80,45.67,-0.35,-13.57,5
0.98,0.10,0.01,36.62,-3.36,3.78,45.69,-0.06,-12.68,5
0.99,0.08,-0.00,26.43,-5.43,0.49,45.65,0.20,-12.05,5
0.98,0.11,0.02,49.38,-7.69,3.78,45.56,-0.63,-12.81,5
1.00,0.07,0.01,48.34,-6.53,-12.08,45.73,-0.67,-11.08,5
0.98,0.07,0.07,72.57,-9.64,2.62,45.76,0.04,-9.84,5
0.98,0.05,0.02,62.13,-6.53,-11.84,45.62,-0.23,-9.79,5
0.97,0.02,0.03,41.26,-7.69,0.00,45.03,0.39,-10.67,5
1.01,0.09,0.11,88.07,1.28,-0.73,45.74,-0.18,-8.87,5
0.97,0.02,0.04,70.13,-14.34,8.48,45.79,-1.65,-8.76,5
1.00,0.08,0.10,50.96,-4.52,-5.80,45.43,-1.64,-8.98,5
0.96,0.01,0.05,48.03,-9.34,-6.59,45.51,-0.90,-7.60,5
1.01,0.02,0.08,23.68,2.20,-0.79,45.67,-1.07,-7.46,5
0.99,0.02,0.06,32.90,-4.03,-4.64,45.56,-0.90,-7.79,5
0.97,0.00,0.05,17.76,-4.58,-0.31,45.15,-1.73,-8.25,5
0.98,-0.02,0.06,6.90,-4.46,-0.18,45.32,-1.53,-6.41,5
1.00,0.02,0.10,53.65,-8.91,11.41,45.57,-1.88,-8.29,5
0.98,-0.01,0.07,39.06,-4.88,8.85,45.79,-1.93,-7.28,5
0.99,0.03,0.10,-3.54,-0.43,7.02,45.56,-2.59,-7.64,5
0.98,0.00,0.08,13.31,-2.32,1.40,46.20,-2.36,-7.09,5
1.00,0.02,0.09,13.55,-3.42,6.77,45.70,-2.67,-6.71,5
0.99,0.01,0.07,20.57,-2.14,3.42,45.79,-2.66,-5.98,5
0.98,0.05,0.10,-3.36,-3.05,5.80,45.52,-2.09,-6.27,5
1.06,-0.03,0.12,-41.50,2.69,6.96,44.92,-1.66,-6.42,5
0.96,0.08,0.05,-3.91,1.46,15.81,44.87,-2.06,-7.50,5
0.99,0.08,0.05,10.68,-0.67,3.72,45.48,-2.16,-5.87,5
0.97,0.06,0.05,-4.76,-3.11,5.55,44.92,-2.48,-6.54,5
0.99,0.04,0.08,4.15,-3.42,0.92,45.09,-2.37,-7.03,5
0.99,0.04,0.05,8.06,-1.46,1.95,45.41,-2.49,-8.33,5
1.00,0.06,0.07,0.98,-5.25,4.15,45.19,-2.77,-7.14,5
0.98,0.06,0.06,4.33,-4.15,0.55,45.17,-2.37,-7.65,5
0.98,0.02,0.06,6.47,-5.49,0.79,45.20,-2.66,-6.27,5
0.98,0.07,0.10,-3.91,-6.23,3.97,45.30,-2.26,-6.64,5
0.99,0.05,0.08,5.13,-2.01,1.16,45.54,-2.40,-7.04,5
0.98,0.05,0.06,3.11,0.79,3.11,45.03,-2.93,-6.69,5
0.99,0.04,0.06,-9.77,-1.65,5.07,45.78,-2.51,-8.02,5
0.97,0.10,0.03,-0.06,-5.92,4.82,45.56,-1.95,-6.21,5
0.98,0.08,0.11,2.75,-8.36,-1.34,45.43,-2.72,-7.52,5
1.01,-0.02,0.10,16.30,1.89,5.43,45.37,-2.53,-6.96,5
0.95,0.07,-0.02,2.01,-1.34,5.43,45.80,-2.62,-6.87,5
1.00,0.03,0.11,-1.10,-2.38,12.76,45.01,-3.49,-7.54,5
0.95,0.15,0.08,10.25,-0.61,8.97,45.35,-2.91,-7.64,5
0.98,0.11,0.07,11.72,0.24,-10.86,45.17,-3.28,-6.73,5
0.97,0.03,0.04,5.31,1.10,-2.32,44.85,-3.10,-6.58,5
0.97,0.09,0.03,6.53,-3.05,1.77,45.70,-3.08,-7.32,5
0.99,0.07,0.06,3.85,-3.54,-2.56,45.41,-2.83,-8.30,5
1.00,0.04,0.07,6.47,-5.86,-2.20,44.64,-2.97,-6.81,5
0.98,0.05,0.07,2.20,-3.72,2.01,45.72,-2.80,-7.01,5
0.98,0.05,0.06,4.58,-3.30,0.98,45.50,-2.23,-7.25,5
0.98,0.07,0.06,3.17,-4.94,3.23,44.70,-2.36,-7.48,5
1.00,0.08,0.10,6.41,-4.58,1.65,44.92,-2.72,-7.45,5
0.98,0.06,0.08,1.22,-5.07,2.14,44.73,-2.91,-7.10,5
1.00,0.03,0.09,10.19,-1.28,0.37,44.80,-2.78,-6.79,5
0.98,0.08,0.07,2.14,-1.83,5.00,44.98,-2.60,-7.84,5
0.98,0.07,0.07,11.35,-3.11,0.18,44.68,-2.64,-6.96,5
0.98,0.06,0.07,7.75,-0.79,2.01,44.91,-2.97,-7.26,5
0.99,0.06,0.07,7.63,-2.50,1.53,45.39,-2.43,-7.25,5
0.99,0.06,0.07,4.33,-2.75,1.28,45.70,-2.75,-7.25,5
0.98,0.04,0.06,7.63,-3.72,1.16,45.31,-3.31,-7.60,5
0.98,0.08,0.07,1.77,-3.11,1.59,45.35,-2.66,-7.58,5
0.98,0.06,0.07,4.46,-3.17,2.14,44.92,-3.10,-7.47,5
0.97,0.08,0.07,4.70,-3.05,1.46,45.25,-2.33,-6.99,5
1.00,0.05,0.09,1.34,-2.56,1.04,44.81,-2.94,-6.79,5
0.97,0.07,0.05,3.85,-0.73,3.30,44.96,-2.67,-7.20,5
0.97,0.06,0.07,11.23,-2.87,-0.85,45.04,-2.89,-7.34,5
0.97,0.06,0.07,-1.04,-2.50,2.08,44.85,-3.00,-7.59,5
0.99,0.07,0.08,2.69,-3.11,3.42,45.32,-2.71,-7.45,5
0.98,0.07,0.06,9.28,-3.05,-0.43,45.47,-3.27,-7.37,5
1.00,0.07,0.07,-2.08,-5.00,2.99,45.50,-2.97,-7.28,5
0.98,0.06,0.08,10.19,-4.39,-0.49,45.46,-2.49,-6.67,5
1.00,0.05,0.09,7.08,-1.46,0.18,45.51,-2.49,-6.88,5
0.98,0.09,0.08,3.42,-3.42,3.11,45.31,-2.56,-6.91,5
0.98,0.07,0.08,3.54,-2.75,1.83,45.39,-2.16,-5.91,5
0.98,0.06,0.07,5.86,-3.30,2.44,45.68,-2.27,-6.95,5
0.98,0.06,0.10,4.58,-2.87,2.44,45.36,-2.61,-7.48,5
0.98,0.11,0.11,6.59,0.06,4.82,45.09,-2.97,-5.87,5
0.97,0.13,0.07,6.77,-1.65,5.55,45.24,-2.83,-6.57,5
0.98,0.11,0.10,9.58,-3.66,-0.79,44.87,-2.84,-6.77,5
0.98,0.04,0.09,2.81,-2.44,-1.22,45.02,-2.99,-6.68,5
0.99,0.06,0.09,5.62,0.18,-0.49,45.03,-3.32,-6.53,5
0.98,0.09,0.07,3.72,-1.16,-2.38,45.46,-3.02,-7.09,5
0.98,0.03,0.04,7.75,-1.46,-1.77,45.30,-2.45,-6.96,5
0.98,0.06,0.06,3.23,-3.60,2.08,45.95,-2.99,-7.01,5
1.00,0.04,0.10,4.46,-0.92,2.50,45.12,-2.87,-6.45,5
0.98,0.07,0.06,0.55,0.18,6.16,44.86,-2.60,-7.08,5
0.98,0.09,0.06,0.06,-2.75,2.20,45.23,-2.60,-6.54,5
0.97,0.06,0.05,-4.21,0.37,4.39,45.14,-2.67,-6.18,5
0.98,0.10,0.06,7.02,-2.14,3.05,45.08,-2.86,-7.40,5
0.98,0.06,0.05,6.35,-3.23,-0.24,44.81,-2.81,-8.24,5
0.99,0.06,0.09,6.10,-4.03,-0.43,45.40,-2.99,-8.67,5
0.98,0.06,0.05,9.40,-3.11,0.24,45.63,-2.89,-6.91,5
0.99,0.08,0.08,4.27,-3.60,1.28,45.78,-2.50,-8.14,5
0.98,0.06,0.08,2.50,-3.60,1.83,45.76,-2.44,-7.19,5
0.98,0.07,0.07,6.71,-2.32,1.10,45.46,-3.02,-6.51,5
0.99,0.06,0.06,6.65,-2.26,1.59,45.59,-3.42,-6.79,5
0.99,0.08,0.08,6.23,-2.32,0.24,44.89,-2.93,-6.54,5
0.98,0.04,0.06,9.52,-1.83,0.31,45.42,-3.32,-6.95,5
0.99,0.07,0.07,4.09,-2.44,0.55,45.54,-2.61,-6.91,5
0.97,0.06,0.05,5.68,-4.15,2.93,45.80,-3.44,-6.95,5
0.99,0.07,0.06,2.32,-2.32,2.50,45.17,-2.93,-6.82,5
0.98,0.07,0.07,5.19,-3.78,2.14,45.18,-3.27,-6.13,5
0.99,0.07,0.07,5.31,-2.62,1.40,45.20,-3.42,-6.84,5
0.99,0.07,0.07,5.43,-3.42,2.38,45.34,-2.73,-5.97,5
0.98,0.08,0.07,6.84,-3.05,0.73,45.46,-3.34,-7.43,5
0.99,0.08,0.07,4.52,1.89,-1.83,45.54,-3.72,-5.64,5
1.00,0.04,0.08,17.09,-1.77,-1.89,45.18,-3.28,-6.97,5
0.99,0.07,0.06,-6.35,2.69,1.46,45.74,-2.81,-6.98,5
0.99,0.06,0.04,1.04,-1.04,0.24,45.03,-3.08,-6.43,5
0.98,0.05,0.07,15.93,-9.83,2.87,45.04,-3.52,-6.03,5
1.00,0.05,0.08,40.28,-14.65,5.62,45.48,-3.85,-6.65,5
0.97,0.07,0.08,41.69,-11.41,3.42,46.12,-4.37,-7.68,5
0.97,0.06,0.09,43.76,-5.13,0.43,46.63,-5.13,-7.06,5
0.99,0.02,0.06,67.32,-3.91,-0.12,46.41,-5.73,-6.18,5
0.98,0.05,0.11,41.63,-1.22,0.55,46.13,-5.68,-6.38,5
0.99,0.05,0.09,52.00,-3.30,6.23,46.41,-6.10,-5.66,5
0.98,0.05,0.11,64.82,-1.95,10.99,46.63,-7.64,-5.75,5
0.98,0.04,0.14,107.79,-3.42,8.85,46.36,-8.78,-4.47,5
0.97,0.07,0.07,47.42,-4.39,10.25,46.91,-9.20,-6.71,5
0.97,0.08,0.17,98.08,-10.07,5.43,47.52,-10.14,-6.48,5
0.99,0.05,0.10,60.91,1.04,-2.20,47.74,-10.91,-5.22,5
1.05,0.04,0.14,78.43,-1.28,-7.14,47.71,-12.18,-5.51,5
0.99,-0.00,0.15,96.98,3.17,-12.70,48.07,-12.39,-5.18,5
1.00,-0.01,0.14,83.25,4.76,-10.80,47.72,-12.34,-5.36,5
0.95,-0.07,0.10,118.23,31.19,-9.34,47.11,-14.00,-4.36,5
0.97,-0.08,0.00,-9.77,16.54,8.97,46.55,-13.11,-4.57,5
1.00,-0.02,-0.02,42.91,-8.67,1.34,47.05,-13.87,-3.59,5
1.00,-0.04,0.05,26.31,-8.30,12.02,47.39,-14.64,-4.68,5
0.96,-0.01,0.03,-6.47,-6.29,4.94,46.94,-15.00,-5.09,5
1.03,-0.07,0.14,88.32,-4.46,-13.00,47.64,-14.98,-4.87,5
0.96,-0.09,0.03,60.55,9.03,-7.08,47.07,-15.59,-4.98,5
0.96,-0.02,-0.00,-28.20,5.49,5.86,46.62,-14.87,-4.61,5
1.01,-0.08,0.05,7.39,2.62,4.46,46.89,-14.75,-4.44,5
0.98,-0.04,0.02,-24.66,-2.87,-1.65,46.37,-14.05,-3.99,5
0.98,-0.08,0.03,-41.38,1.28,-4.03,45.79,-13.64,-5.15,5
1.02,-0.08,0.08,-33.69,-6.23,-6.29,45.98,-12.89,-3.76,5
0.99,-0.10,0.08,-4.46,-6.65,-3.66,46.19,-12.10,-4.28,5
0.96,-0.10,0.01,-10.25,3.72,-2.44,45.89,-11.62,-4.08,5
0.98,-0.08,0.06,-6.10,-2.20,3.11,45.86,-11.62,-3.44,5
0.99,-0.06,0.07,-2.81,-0.43,0.43,46.09,-11.76,-3.64,5
1.00,-0.09,0.04,8.36,7.08,-4.82,46.09,-11.55,-3.75,5
0.97,-0.07,0.07,-3.36,0.18,-3.23,45.50,-10.97,-2.89,5
0.98,-0.17,-0.10,13.55,7.87,7.75,45.24,-10.82,-3.09,5
0.97,-0.03,0.03,9.34,-2.93,14.77,45.02,-11.54,-2.69,5
0.98,-0.06,0.01,-3.97,-6.71,10.07,45.48,-11.76,-2.55,5
0.98,-0.07,0.01,3.66,-4.39,12.57,45.10,-12.04,-3.44,5
1.00,-0.06,0.04,6.47,-10.68,12.27,45.23,-11.54,-2.95,5
0.98,-0.01,0.06,0.00,-7.39,9.52,44.84,-11.56,-3.67,5
0.99,-0.05,0.01,1.59,-5.25,7.93,45.51,-12.57,-3.14,5
0.99,-0.06,0.11,-0.12,-7.75,4.58,45.53,-12.45,-3.69,5
0.99,-0.02,0.02,4.64,-5.07,1.65,45.28,-12.68,-3.97,5
0.99,-0.01,0.08,-1.28,-8.97,2.26,45.53,-12.22,-3.56,5
0.99,0.00,0.03,3.48,-2.93,0.49,45.06,-12.24,-3.03,5
0.99,-0.07,0.03,5.37,-8.12,3.11,44.84,-12.38,-3.05,5
0.97,0.00,0.09,5.31,-4.03,3.11,45.41,-12.37,-3.12,5
0.98,-0.03,0.02,3.72,-1.53,-0.18,45.54,-12.46,-4.64,5
0.98,-0.02,0.05,2.44,-6.53,0.73,44.96,-12.62,-3.74,5
0.98,-0.01,0.10,8.30,0.79,-2.08,44.74,-11.90,-4.46,5
0.99,-0.07,0.06,5.00,-2.81,-1.77,45.34,-11.88,-3.66,5
1.00,-0.06,0.05,5.92,-0.98,3.91,45.09,-12.44,-3.85,5
0.98,-0.01,0.01,4.27,2.69,2.75,44.73,-12.11,-4.64,5
1.00,-0.06,0.04,4.46,-0.37,1.10,45.56,-12.15,-4.59,5
0.98,-0.03,0.07,1.10,-1.77,2.44,44.63,-12.08,-4.10,5
1.00,-0.06,0.02,-1.16,1.71,1.59,45.19,-12.22,-4.20,5
0.98,-0.03,0.06,7.32,-2.14,1.53,44.92,-12.68,-3.72,5
1.00,-0.04,0.06,5.37,-3.05,0.31,45.17,-11.80,-3.74,5
0.98,-0.03,0.03,7.57,-2.20,1.89,45.10,-12.16,-4.06,5
0.99,-0.04,0.07,2.81,-1.83,0.06,45.17,-12.12,-2.78,5
0.99,-0.04,0.03,2.08,-3.11,1.46,45.53,-11.69,-3.65,5
0.99,-0.03,0.05,4.76,-3.60,1.65,45.14,-11.71,-2.72,5
0.99,-0.03,0.05,3.17,-1.89,2.01,45.02,-12.67,-4.11,5
0.98,-0.03,0.05,2.75,-3.36,0.98,45.41,-12.22,-4.14,5
0.99,-0.04,0.04,4.58,-2.99,1.28,45.15,-11.73,-3.30,5
0.99,-0.05,0.05,5.62,-5.62,2.99,44.67,-11.47,-3.47,5
0.98,-0.03,0.04,6.47,-3.05,4.03,44.97,-12.01,-3.14,5
0.98,-0.02,0.06,6.65,-4.39,1.77,44.98,-12.48,-3.88,5
0.99,-0.04,0.04,4.88,-0.43,1.53,45.35,-12.33,-4.20,5
1.00,-0.04,0.05,5.74,-2.50,0.55,44.89,-11.77,-4.63,5
0.98,-0.01,0.04,3.17,-3.72,2.93,45.45,-12.50,-4.24,5
0.98,-0.02,0.05,6.59,-2.08,1.16,45.17,-12.38,-4.05,5
0.98,-0.04,0.05,4.52,-4.39,1.04,45.20,-12.11,-4.53,5
0.99,-0.03,0.08,5.68,-2.93,0.43,45.17,-12.82,-3.83,5
0.99,-0.04,0.04,4.82,-2.93,0.43,45.50,-11.94,-4.08,5
0.99,-0.03,0.05,5.00,-3.42,1.77,45.25,-11.91,-3.34,5
0.98,-0.03,0.06,3.85,-3.11,0.67,44.93,-11.74,-3.43,5
0.99,-0.05,0.04,4.88,-1.71,2.26,44.95,-12.27,-4.13,5
1.00,-0.03,0.08,2.87,-6.71,2.26,45.40,-12.30,-5.15,5
0.99,-0.03,0.05,4.76,-1.46,1.10,45.07,-12.43,-4.09,5
0.98,-0.02,0.05,6.04,-6.41,2.08,45.37,-12.05,-4.99,5
0.99,-0.04,0.05,3.97,-0.18,1.10,45.62,-12.82,-4.64,5
1.00,-0.04,0.06,4.27,-3.85,0.73,45.26,-11.95,-4.57,5
0.99,-0.04,0.08,3.91,-5.19,1.28,45.59,-12.11,-4.48,5
0.99,-0.03,0.07,3.60,-2.56,1.04,45.07,-12.05,-4.69,5
0.99,-0.04,0.04,3.42,-2.87,1.71,45.52,-12.19,-3.87,5
0.99,-0.04,0.06,2.93,-1.65,2.20,44.95,-12.01,-4.60,5
0.98,-0.04,0.05,4.76,-3.97,1.77,45.10,-12.07,-4.41,5
1.00,-0.04,0.08,2.75,-1.89,1.53,45.26,-11.68,-4.20,5
0.98,-0.04,0.06,3.66,-3.97,1.16,45.64,-12.21,-4.54,5
1.00,-0.05,0.09,3.36,-1.04,1.28,45.53,-11.98,-4.10,5
0.98,-0.03,0.06,2.62,-3.60,1.34,45.56,-11.72,-4.90,5
0.99,-0.03,0.10,4.27,-3.72,1.28,45.14,-12.52,-3.96,5
0.99,-0.04,0.06,5.07,-2.08,0.92,45.69,-11.69,-3.89,5
0.98,-0.04,0.06,6.29,-5.43,2.50,46.02,-12.04,-4.20,5
0.98,-0.03,0.07,2.62,0.37,1.59,45.09,-11.58,-3.11,5
0.99,-0.04,0.04,5.07,-4.64,2.14,45.89,-11.91,-4.48,5
0.99,-0.02,0.08,3.36,-1.53,2.26,45.10,-12.02,-4.93,5
0.99,-0.05,0.06,2.87,-2.08,0.73,44.74,-11.16,-4.14,5
0.99,-0.03,0.07,4.33,-2.75,1.89,45.36,-11.91,-4.43,5
0.98,-0.04,0.06,5.62,-4.15,1.34,44.81,-11.55,-4.30,5
0.99,-0.04,0.06,1.28,0.61,1.10,45.26,-11.95,-4.49,5
0.99,-0.05,0.07,3.60,-4.03,1.34,45.74,-12.11,-4.82,5
0.99,-0.04,0.07,4.09,-1.83,1.34,45.72,-12.48,-4.38,5
0.99,-0.04,0.08,4.58,-3.78,0.98,45.39,-12.04,-4.31,5
0.99,-0.04,0.07,3.23,-1.28,1.16,45.09,-11.54,-4.71,5
0.99,-0.03,0.06,2.20,-4.33,1.77,45.01,-12.22,-5.18,5
0.99,-0.04,0.05,5.07,0.49,1.46,45.43,-11.56,-4.15,5
0.98,-0.04,0.08,4.70,-4.94,2.75,45.48,-11.98,-5.43,5
0.99,-0.04,0.07,3.72,-0.85,2.38,45.35,-11.44,-4.32,5
0.98,-0.01,0.04,2.50,-5.13,3.36,45.52,-12.07,-3.94,5
0.99,-0.04,0.08,3.72,-4.82,1.65,45.26,-11.99,-4.90,5
0.97,-0.02,0.09,4.39,-4.76,3.23,45.06,-11.61,-4.93,5
0.99,-0.03,0.09,3.36,-1.34,-0.43,45.13,-11.99,-4.61,5
0.99,-0.05,0.06,2.87,-3.11,2.01,45.13,-12.50,-4.46,5
0.98,-0.02,0.09,2.87,-2.69,0.49,44.89,-12.00,-4.43,5
0.98,-0.02,0.06,4.76,-0.92,0.73,45.34,-11.68,-5.38,5
0.98,-0.03,0.13,6.84,-1.28,-1.53,45.25,-12.27,-5.08,5
0.99,-0.06,0.05,2.62,-2.44,0.67,44.97,-11.99,-4.99,5
0.98,-0.03,0.11,4.03,-4.70,4.64,45.14,-12.37,-4.99,5
0.99,-0.04,0.09,1.46,0.67,3.23,45.32,-12.26,-4.54,5
0.99,-0.05,0.04,3.66,-2.26,4.27,45.61,-12.13,-4.44,5
0.98,0.00,0.07,5.31,-2.32,3.97,45.41,-12.32,-3.92,5
0.99,-0.02,0.06,8.06,-0.55,-0.49,45.31,-12.34,-4.83,5
0.98,-0.02,0.05,5.43,-1.71,0.37,45.15,-12.02,-4.30,5
0.99,-0.04,0.07,5.00,-3.85,-0.98,45.42,-12.17,-4.21,5
0.99,-0.06,0.06,6.04,-1.46,0.43,45.20,-12.37,-4.11,5
0.99,-0.04,0.05,4.21,-4.58,4.27,44.81,-12.40,-4.15,5
0.98,-0.02,0.10,4.21,-3.54,3.23,45.30,-12.29,-4.19,5
1.00,-0.04,0.05,7.08,-2.38,3.11,44.84,-11.98,-4.13,5
0.98,-0.01,0.08,5.25,-2.87,3.11,45.54,-12.74,-4.13,5
0.99,-0.02,0.08,5.49,-2.14,2.01,45.24,-12.21,-5.38,5
0.99,-0.03,0.06,7.45,-1.40,0.55,45.02,-12.22,-4.81,5
0.98,-0.02,0.08,7.57,-1.71,-1.10,45.45,-12.43,-4.24,5
1.01,-0.07,0.02,15.08,0.31,11.05,45.95,-12.59,-3.94,5
0.99,-0.02,0.04,10.25,0.37,2.32,45.25,-12.24,-4.83,5
0.99,-0.03,0.06,5.74,-0.24,-1.83,45.26,-12.39,-5.22,5
0.98,-0.04,0.07,4.58,0.67,-0.37,45.51,-12.82,-4.85,5
1.00,-0.05,0.02,6.77,0.98,-0.31,45.47,-11.73,-3.42,5
1.00,-0.03,0.06,8.79,-5.25,2.14,45.43,-12.46,-4.37,5
1.00,-0.02,0.07,11.54,-0.79,2.93,45.35,-12.57,-4.70,5
0.98,-0.03,0.06,10.01,-3.42,-0.18,45.34,-13.35,-4.63,5
0.98,0.01,0.05,18.55,-2.87,-2.62,45.52,-13.13,-4.48,5
0.99,-0.07,0.09,21.30,-6.35,-10.07,45.83,-12.62,-3.15,5
0.99,-0.07,0.05,18.80,-6.41,-4.64,46.08,-13.76,-4.77,5
1.00,-0.07,0.07,45.65,-5.55,0.37,46.40,-13.51,-5.43,5
0.97,-0.07,0.06,48.16,-1.22,-1.10,45.98,-13.98,-4.60,5
0.98,-0.05,0.05,67.44,-0.18,3.66,46.12,-14.33,-4.75,5
0.98,-0.05,0.05,70.25,-1.53,1.46,46.25,-15.34,-5.97,5
0.98,-0.06,0.03,54.63,2.93,-1.53,45.58,-15.37,-5.43,5
0.98,-0.05,0.01,67.20,-3.60,-1.40,46.04,-15.87,-6.31,5
1.00,-0.05,0.01,71.35,-8.36,-2.99,46.18,-16.17,-6.27,5
0.98,-0.11,0.03,74.28,-4.70,-5.86,46.35,-16.78,-6.30,5
0.99,-0.09,0.02,121.52,-5.74,7.69,46.56,-17.22,-7.13,5
0.98,-0.10,0.03,117.37,-1.22,0.43,46.36,-17.71,-8.04,5
0.99,-0.09,-0.00,80.38,5.31,14.95,45.83,-18.84,-8.63,5
0.99,-0.07,-0.04,60.49,-2.50,3.23,45.59,-19.69,-8.34,5
0.99,-0.07,-0.04,58.72,-1.89,9.83,45.39,-19.75,-9.80,5
1.00,-0.00,-0.04,53.28,-8.85,-4.27,45.96,-20.42,-9.96,5
0.99,-0.07,-0.03,57.50,-10.19,0.85,46.14,-20.36,-10.22,5
0.98,-0.05,-0.02,43.46,-0.98,-1.77,46.09,-21.28,-11.67,5
0.99,-0.07,-0.04,27.22,2.93,-4.64,46.20,-20.42,-11.41,5
0.99,-0.09,-0.04,22.83,2.26,2.32,46.63,-20.97,-12.32,5
1.00,-0.06,-0.04,36.56,3.23,12.70,46.37,-21.36,-12.05,5
0.97,-0.08,-0.07,37.72,-3.48,4.09,46.55,-21.26,-12.11,5
0.98,-0.04,-0.05,32.59,-5.07,7.20,46.24,-21.59,-13.28,5
0.99,-0.07,-0.06,51.39,-5.55,3.11,46.28,-22.03,-13.67,5
1.00,-0.04,-0.06,29.42,-3.85,9.89,46.61,-22.46,-13.00,5
0.98,-0.05,-0.06,17.09,-1.16,16.48,46.57,-23.08,-15.00,5
1.00,-0.02,-0.05,19.96,-1.46,11.90,46.91,-22.71,-14.79,5
1.00,-0.00,-0.06,9.52,2.99,9.95,46.35,-22.84,-14.27,5
0.97,-0.04,-0.05,-6.53,2.93,21.85,45.57,-23.45,-13.22,5
0.96,0.09,-0.05,-21.12,-4.33,21.30,44.97,-22.52,-12.74,5
0.99,0.03,-0.05,-8.91,-5.68,-4.64,44.78,-22.88,-13.00,5
0.99,0.06,-0.08,-3.23,0.24,-0.06,44.60,-22.96,-12.04,5
0.98,0.03,-0.08,-2.14,-6.53,-2.56,44.47,-21.94,-12.73,5
0.99,0.02,-0.05,-4.82,-4.76,-2.69,45.07,-21.95,-12.48,5
0.98,-0.01,-0.03,-11.11,-6.04,-7.20,44.84,-22.03,-13.18,5
0.98,-0.02,-0.05,-5.86,-4.33,-2.93,45.15,-21.98,-12.43,5
1.00,0.01,-0.08,-3.66,-3.85,-2.81,45.13,-21.81,-12.16,5
0.99,-0.03,-0.02,-14.71,-4.21,-1.10,45.24,-21.53,-11.50,5
0.98,-0.02,-0.06,-22.95,-2.87,-0.73,44.96,-21.45,-11.89,5
1.00,-0.00,-0.09,-13.92,-5.00,2.01,44.79,-21.91,-11.41,5
0.99,-0.01,-0.05,-5.00,-8.12,-0.31,44.76,-20.76,-11.30,5
0.98,-0.06,-0.01,-12.08,-5.19,2.56,44.59,-21.47,-11.33,5
0.98,-0.08,0.00,-13.92,-6.71,-2.75,44.79,-21.45,-10.99,5
1.00,-0.04,-0.06,-1.22,0.00,3.85,44.86,-21.08,-11.23,5
0.99,0.03,-0.05,-1.89,-2.93,3.42,44.62,-21.50,-11.19,5
0.98,-0.02,-0.05,-5.00,-1.89,-1.22,44.93,-21.40,-11.54,5
0.99,-0.02,-0.05,-4.88,-1.10,2.14,44.84,-21.62,-9.80,5
0.98,-0.03,-0.04,-4.15,-1.53,0.24,44.75,-20.67,-10.08,5
0.99,0.00,-0.08,2.87,-0.37,2.50,44.25,-22.19,-10.01,5
0.98,-0.02,-0.04,-0.49,-2.87,0.24,44.84,-21.34,-10.79,5
0.99,-0.02,-0.07,-3.66,-1.71,1.65,44.85,-21.34,-9.84,5
0.99,-0.03,-0.02,-14.40,-5.92,0.43,45.56,-21.63,-10.33,5
1.00,-0.01,-0.07,-8.73,-3.60,2.75,44.97,-21.19,-10.44,5
0.99,-0.01,-0.03,-6.35,-3.60,3.11,44.98,-21.09,-10.91,5
0.99,-0.03,-0.04,-1.40,-1.53,2.14,44.71,-21.40,-9.92,5
0.98,-0.01,-0.05,-3.54,-3.23,1.59,44.26,-20.58,-9.95,5
0.99,-0.03,-0.04,-0.31,-1.65,2.38,44.87,-21.18,-10.28,5
0.98,-0.02,-0.06,-7.45,-4.03,0.37,45.25,-20.92,-10.66,5
1.00,-0.04,-0.02,-8.06,-3.54,1.16,45.14,-21.34,-9.44,5
0.98,-0.02,-0.05,0.49,-2.81,2.81,45.18,-21.30,-9.35,5
0.99,-0.03,-0.03,1.89,-2.32,1.77,45.03,-21.26,-9.88,5
0.99,-0.02,-0.05,4.21,-1.53,2.20,45.12,-20.79,-9.39,5
0.99,-0.03,-0.03,1.77,-5.07,-0.31,45.34,-20.70,-10.08,5
0.98,-0.03,-0.02,3.48,-2.81,1.34,45.18,-20.67,-9.33,5
1.00,-0.03,-0.05,7.14,-2.44,-0.31,45.20,-21.17,-9.59,5
0.99,-0.04,-0.03,7.87,-3.23,0.85,45.47,-20.63,-9.03,5
1.00,-0.00,-0.10,21.12,1.10,4.15,45.47,-20.84,-9.94,5
0.97,-0.01,-0.03,24.72,-6.53,-2.26,44.89,-21.36,-10.17,5
1.00,-0.01,-0.06,26.55,0.24,5.31,45.56,-21.48,-9.12,5
0.98,-0.03,-0.06,27.95,-6.04,-0.79,45.48,-21.30,-10.83,5
1.00,-0.04,-0.03,30.64,-6.65,0.12,45.67,-21.41,-11.16,5
0.99,-0.00,-0.07,32.35,-5.07,0.24,44.92,-20.75,-11.65,5
1.00,-0.04,-0.04,30.76,-5.37,-2.01,45.50,-21.74,-11.74,5
1.00,-0.05,-0.04,25.51,-5.13,-1.34,45.51,-21.22,-12.51,5
0.98,-0.07,0.01,20.26,-3.23,-0.18,45.40,-21.35,-12.04,5
1.00,-0.03,-0.02,39.06,-3.60,0.85,45.51,-21.66,-12.40,5
0.98,-0.04,-0.03,36.25,-1.65,-1.40,45.20,-22.06,-12.70,5
0.99,-0.05,-0.01,31.92,-1.53,0.61,45.62,-21.94,-13.33,5
0.99,-0.02,-0.05,18.49,-2.56,-2.38,45.40,-21.11,-13.22,5
1.00,-0.01,-0.05,20.39,-2.93,-0.18,45.84,-22.02,-12.62,5
0.98,-0.04,-0.03,16.85,-3.91,-3.36,45.21,-21.51,-12.93,5
1.00,-0.04,-0.06,20.81,-2.81,-1.65,45.30,-21.28,-13.26,5
1.00,-0.03,-0.04,21.85,-3.05,0.24,45.43,-21.13,-13.49,5
0.98,-0.02,-0.04,7.75,-3.23,-0.55,45.09,-21.37,-13.73,5
0.99,-0.03,-0.04,7.69,-2.08,1.89,44.95,-21.29,-13.92,5
0.98,-0.03,-0.04,18.01,-2.01,2.81,44.82,-20.81,-14.90,5
1.00,-0.03,-0.04,16.54,-3.66,2.50,45.73,-21.53,-13.75,5
1.00,-0.02,-0.06,24.54,-4.39,4.52,45.17,-21.30,-13.54,5
0.98,-0.03,-0.02,22.22,-6.04,2.44,45.18,-21.31,-15.69,5
1.00,-0.03,-0.05,22.40,-3.05,1.40,44.81,-20.90,-15.22,5
0.99,-0.00,-0.04,21.36,-3.72,2.14,45.25,-21.34,-15.82,5
0.97,-0.01,-0.04,40.34,-1.77,1.59,45.18,-21.23,-15.61,5
0.99,-0.01,-0.05,30.64,-1.89,2.93,45.31,-21.52,-16.02,5
0.97,-0.03,-0.02,25.76,-4.21,-0.55,44.58,-21.59,-15.92,5
1.00,-0.01,-0.05,36.93,-2.20,3.42,44.68,-21.18,-16.30,5
1.00,0.01,-0.05,43.09,-3.42,3.60,44.91,-21.67,-16.92,5
1.00,-0.02,-0.05,46.81,-2.99,3.17,44.73,-20.87,-17.97,5
0.99,0.01,-0.05,29.48,-4.03,1.46,44.96,-21.12,-18.16,5
0.98,-0.01,-0.03,34.12,-2.62,-0.55,44.90,-20.69,-18.40,5
1.00,0.00,-0.05,33.45,-4.03,1.04,44.75,-20.86,-19.30,5
0.99,-0.03,-0.03,40.47,-3.05,1.59,45.13,-20.50,-19.10,5
0.99,0.03,-0.04,24.84,-1.40,3.78,44.68,-21.00,-19.14,5
0.98,-0.01,-0.04,30.27,-2.99,1.95,44.69,-20.80,-19.09,5
0.99,0.02,-0.04,23.07,-3.91,1.22,44.80,-20.24,-20.89,5
1.00,0.03,-0.04,22.40,-4.70,3.17,45.09,-20.97,-18.73,5
0.98,0.00,-0.03,4.15,-2.81,-0.06,45.03,-20.64,-19.40,5
1.00,0.03,-0.07,5.62,-2.20,3.91,44.70,-20.37,-20.81,5
0.99,0.01,-0.04,9.09,-3.66,0.49,44.54,-20.18,-19.63,5
1.00,0.02,-0.05,20.32,-3.97,-0.18,44.93,-20.42,-19.41,5
0.99,0.03,-0.04,23.80,-4.33,1.59,44.81,-20.57,-18.64,5
0.99,-0.01,-0.04,13.00,-4.94,-2.01,44.86,-20.59,-19.38,5
0.97,0.02,-0.07,19.90,-2.26,8.79,44.90,-19.92,-20.28,5
1.00,0.04,-0.04,25.88,-4.15,1.65,44.63,-20.18,-20.85,5
0.99,0.01,-0.02,35.46,-5.25,2.75,44.80,-20.25,-20.83,5
0.98,0.02,-0.04,16.97,-2.99,0.73,44.65,-19.54,-21.44,5
1.00,0.04,-0.06,12.45,-2.26,0.00,44.90,-19.20,-21.63,5
0.99,0.01,-0.04,29.60,-3.91,3.30,45.28,-19.43,-21.61,5
1.00,0.03,-0.03,12.63,-3.60,-1.28,44.62,-19.36,-21.53,5
0.99,0.03,-0.04,26.86,-2.20,4.03,44.75,-19.01,-22.27,5
0.99,0.00,-0.02,19.29,-2.32,2.32,44.78,-18.82,-21.56,5
0.98,0.01,-0.02,8.00,-0.43,-0.12,44.75,-19.21,-22.16,5
0.98,-0.04,-0.04,43.82,-2.69,5.62,44.65,-19.07,-22.92,5
0.99,0.05,-0.02,41.93,-3.42,5.92,44.24,-17.79,-23.39,5
0.98,0.03,-0.03,19.23,-2.93,0.31,44.86,-18.53,-22.92,5
0.99,0.06,-0.02,39.43,-6.71,9.89,44.48,-18.35,-23.90,5
0.99,0.06,-0.02,16.60,-1.77,-1.89,44.45,-18.63,-23.78,5
0.99,-0.03,-0.06,30.09,-2.62,3.72,44.69,-17.85,-23.55,5
0.99,0.09,-0.00,12.02,-2.69,-0.61,44.63,-17.54,-23.12,5
1.00,0.04,-0.02,13.85,-2.99,0.55,44.36,-17.38,-23.34,5
0.98,0.04,-0.02,10.74,-3.23,0.43,44.71,-17.48,-24.49,5
0.98,0.08,-0.04,29.36,-3.54,5.98,44.69,-16.58,-23.41,5
0.98,0.03,-0.02,28.14,-4.82,-3.66,44.58,-16.86,-24.15,5
1.00,0.05,-0.01,22.03,-5.19,4.46,44.51,-16.69,-23.96,5
0.98,0.05,-0.00,30.70,-5.62,1.53,43.99,-16.31,-24.76,5
1.00,0.04,-0.03,18.01,-2.14,1.22,44.38,-16.46,-26.11,5
0.98,0.04,-0.01,20.45,-5.07,0.85,44.30,-16.49,-24.34,5
0.99,0.02,-0.02,28.20,-6.41,2.01,43.93,-16.16,-25.22,5
0.99,0.05,0.00,17.27,-4.09,1.22,44.10,-16.15,-24.77,5
0.98,0.04,-0.00,10.68,-2.14,-0.67,44.19,-15.50,-24.98,5
0.99,0.05,0.00,26.06,-6.47,4.46,43.84,-15.33,-25.71,5
1.00,0.07,0.01,29.48,-6.10,0.06,43.82,-15.16,-26.29,5
1.00,0.07,-0.01,23.01,-4.27,5.00,44.14,-14.82,-25.87,5
0.98,0.04,0.01,22.03,-4.64,1.59,43.99,-14.44,-25.79,5
0.99,0.06,0.01,23.50,-5.68,6.04,43.81,-14.98,-26.72,5
0.99,0.08,0.04,13.37,-4.82,0.73,44.20,-14.76,-26.75,5
0.99,0.02,-0.01,8.12,-0.06,-0.61,44.01,-14.31,-26.82,5
0.99,0.06,0.03,15.26,-4.03,0.79,43.99,-14.44,-26.32,5
0.99,0.05,0.00,13.18,-2.93,2.20,44.24,-14.38,-25.23,5
0.99,0.06,0.01,8.12,-1.04,0.61,44.36,-13.96,-26.67,5
0.98,0.02,0.01,8.30,-1.65,3.42,43.86,-13.72,-27.49,5
1.01,0.06,-0.02,18.92,-0.06,4.03,44.04,-14.01,-26.95,5
0.99,0.05,0.02,18.01,-1.28,-1.89,44.27,-14.01,-26.97,5
1.00,0.05,0.02,35.77,-1.10,-0.24,43.91,-13.43,-27.39,5
1.01,0.07,0.01,51.21,-5.62,2.01,44.19,-13.20,-26.87,5
0.98,0.07,0.06,47.73,-1.59,-1.53,44.18,-12.40,-28.09,5
1.00,0.05,-0.01,39.67,-4.94,-2.81,43.75,-12.46,-27.25,5
0.96,-0.00,0.04,46.26,-6.10,-0.49,44.37,-11.24,-27.39,5
1.01,0.05,0.03,27.71,-3.11,0.43,43.91,-10.64,-27.25,5
0.98,0.02,0.04,36.87,-3.48,0.12,44.10,-10.42,-26.75,5
1.01,0.05,-0.02,49.93,-8.18,5.31,43.62,-10.21,-28.41,5
0.98,0.02,0.03,57.43,-9.64,4.03,43.75,-9.14,-27.04,5
1.01,0.09,0.08,43.88,-3.11,4.52,43.99,-8.63,-27.73,5
0.97,0.02,-0.00,16.85,-2.56,0.67,43.92,-8.87,-27.14,5
0.99,0.04,0.05,25.39,-6.41,-2.69,44.04,-8.36,-27.87,5
1.00,0.03,0.02,17.58,-8.00,0.00,44.08,-7.67,-27.05,5
1.00,0.04,0.06,23.62,-9.95,0.31,43.99,-7.97,-28.44,5
1.00,0.03,0.06,28.99,-7.87,1.40,43.43,-8.14,-27.75,5
0.98,0.02,0.07,11.54,-5.98,0.31,43.35,-7.30,-27.69,5
0.99,0.03,0.07,29.72,-12.08,-2.69,43.49,-6.51,-27.62,5
0.98,0.03,0.09,11.17,-4.39,2.38,43.19,-7.03,-27.61,5
0.99,0.02,0.07,12.76,-5.13,1.28,43.04,-6.64,-27.61,5
0.98,0.02,0.12,13.85,-8.24,2.01,43.18,-6.62,-28.50,5
0.98,0.01,0.09,10.31,-3.54,0.49,43.10,-6.24,-29.92,5
0.98,0.01,0.11,9.83,-3.66,0.55,42.72,-5.80,-28.85,5
0.99,0.02,0.11,9.52,-5.13,2.08,43.41,-6.16,-27.49,5
0.98,0.00,0.10,10.44,-2.69,0.00,43.21,-5.88,-28.61,5
0.99,0.01,0.09,4.52,-3.17,2.87,42.85,-6.21,-27.58,5
0.99,0.04,0.12,8.06,-3.17,0.55,43.26,-5.96,-29.03,5
0.98,0.01,0.08,6.96,-3.05,2.08,42.83,-5.55,-28.16,5
0.99,0.03,0.11,8.06,-3.91,2.01,42.79,-5.76,-27.81,5
0.98,0.01,0.10,10.74,-3.97,0.18,42.43,-5.60,-27.82,5
0.98,0.01,0.11,14.40,-4.52,0.18,43.13,-5.48,-27.84,5
0.97,-0.01,0.12,7.08,-2.38,1.89,42.72,-5.55,-28.83,5
0.99,0.01,0.09,16.30,-1.95,2.20,42.96,-5.69,-27.55,5
0.99,0.02,0.12,16.11,-5.92,1.46,42.88,-5.03,-27.53,5
0.99,0.01,0.10,12.94,-6.77,2.38,42.77,-4.93,-28.78,5
0.99,0.01,0.10,17.40,-6.29,0.43,42.71,-5.24,-28.25,5
0.98,0.01,0.12,10.86,-6.59,3.66,42.54,-4.75,-29.20,5
0.98,0.02,0.14,13.18,-5.49,0.43,42.88,-4.99,-28.42,5
0.98,-0.00,0.11,8.91,-2.93,1.40,42.58,-4.82,-28.38,5
0.98,0.01,0.11,7.20,-1.95,1.22,42.26,-4.68,-29.33,5
0.97,-0.01,0.13,14.59,-1.59,1.65,42.15,-4.30,-28.94,5
0.99,0.02,0.10,10.86,-1.59,2.99,42.24,-3.72,-28.56,5
0.97,0.00,0.12,10.25,-1.34,0.55,42.37,-4.44,-28.09,5
1.00,0.01,0.10,11.90,-2.87,2.69,42.66,-4.33,-28.75,5
0.98,-0.00,0.12,9.64,-5.25,1.89,42.59,-4.11,-28.54,5
0.99,0.02,0.14,10.19,-5.92,3.72,42.22,-4.04,-29.09,5
0.97,-0.01,0.09,7.51,-3.66,0.98,41.98,-4.61,-29.31,5
0.98,-0.00,0.13,9.22,-4.88,1.46,42.02,-4.13,-28.32,5
0.97,-0.00,0.14,7.57,-4.94,0.31,42.55,-3.92,-28.82,5
0.98,-0.01,0.10,8.00,-3.11,0.73,42.44,-3.83,-28.87,5
0.98,0.01,0.13,7.32,-4.03,1.95,42.32,-3.93,-28.55,5
0.98,-0.01,0.13,5.98,-2.75,0.85,42.33,-3.91,-28.44,5
0.97,-0.01,0.13,5.13,-2.44,0.79,42.37,-3.64,-28.37,5
0.98,-0.00,0.13,3.30,-2.38,1.34,42.30,-3.63,-28.22,5
0.98,0.00,0.12,4.70,-2.75,1.34,42.42,-4.19,-28.81,5
0.98,0.01,0.12,5.00,-3.85,1.34,42.58,-4.00,-28.63,5
0.98,-0.00,0.13,2.81,-2.69,1.83,42.37,-3.37,-28.33,5
0.98,-0.00,0.14,5.13,-2.75,0.92,42.19,-3.67,-28.47,5
0.98,0.00,0.12,2.20,-2.26,2.26,41.91,-3.72,-27.86,5
0.98,0.00,0.14,5.68,-3.36,0.79,42.35,-3.96,-27.87,5
0.98,-0.00,0.13,3.97,-2.08,2.08,42.83,-3.56,-28.50,5
0.98,0.00,0.12,4.52,-1.59,0.49,41.82,-4.02,-29.38,5
0.97,-0.01,0.13,4.82,-3.11,1.95,42.83,-4.43,-28.02,5
0.99,0.01,0.13,7.32,-3.48,1.10,42.55,-3.98,-27.76,5
0.97,-0.01,0.14,1.77,-1.83,0.12,42.42,-3.97,-28.56,5
1.00,0.02,0.13,1.95,0.43,1.40,43.02,-4.02,-29.11,5
0.98,-0.00,0.12,3.48,-2.56,1.71,42.63,-3.96,-29.02,5
0.99,0.02,0.13,2.01,-0.85,2.14,42.68,-3.66,-28.37,5
0.98,-0.01,0.10,5.92,-1.34,0.43,42.99,-3.91,-28.72,5
0.98,-0.00,0.13,3.78,-2.93,1.89,42.70,-4.13,-27.93,5
0.98,0.00,0.13,3.42,-2.50,1.16,43.26,-4.05,-28.49,5
0.98,0.01,0.12,3.36,-2.62,1.28,42.60,-4.26,-27.51,5
0.97,-0.01,0.11,4.09,-2.08,0.55,42.94,-4.11,-27.73,5
0.98,0.01,0.13,5.98,-3.85,1.77,43.30,-4.49,-28.04,5
0.98,0.00,0.12,6.10,-4.03,0.55,42.83,-3.64,-28.06,5
1.00,0.04,0.15,13.49,-7.81,3.36,42.88,-3.93,-28.27,5
0.99,0.01,0.12,10.38,-3.78,-0.49,42.74,-4.19,-27.40,5
0.96,-0.04,0.14,8.18,-3.36,-1.28,43.02,-3.92,-28.88,5
0.99,0.01,0.14,7.08,-4.46,3.05,42.46,-3.49,-29.42,5
0.98,0.02,0.13,7.02,-2.44,0.31,42.40,-2.53,-27.73,5
0.99,0.01,0.12,10.25,-3.91,0.24,42.85,-3.30,-28.09,5
0.98,-0.02,0.14,7.32,-3.23,0.24,42.99,-3.36,-27.04,5
0.98,-0.01,0.13,7.75,-1.77,3.36,42.65,-2.87,-28.96,5
0.98,0.00,0.15,7.87,0.00,3.05,43.01,-3.41,-27.78,5
0.97,-0.02,0.14,7.20,3.05,3.60,42.92,-3.08,-28.27,5
0.99,0.01,0.10,10.68,3.17,3.72,42.92,-2.83,-26.97,5
0.97,-0.01,0.12,8.24,7.81,1.65,42.93,-2.73,-28.38,5
1.00,0.02,0.07,8.06,8.18,2.08,42.92,-2.84,-27.01,5
1.00,0.01,0.06,7.39,7.93,3.23,43.53,-3.58,-26.99,5
0.99,-0.01,0.09,7.75,2.75,0.55,43.15,-3.34,-26.06,5
0.98,-0.02,0.08,4.76,8.73,0.24,43.44,-3.11,-26.23,5
0.99,-0.01,0.07,8.18,3.60,1.10,43.27,-2.77,-26.43,5
0.99,-0.01,0.03,10.93,13.79,4.46,43.73,-3.43,-25.74,5
0.98,-0.00,0.04,13.49,3.78,1.59,43.20,-3.04,-25.32,5
1.00,0.00,0.02,12.82,5.74,2.20,43.96,-2.62,-24.44,5
0.99,-0.01,0.02,11.78,1.95,0.06,44.18,-2.91,-24.48,5
0.99,-0.00,0.01,11.29,0.37,2.56,43.93,-3.09,-25.15,5
0.98,-0.03,0.02,14.28,2.26,2.26,44.14,-2.51,-25.90,5
0.99,-0.01,-0.02,10.13,3.42,2.26,44.23,-2.39,-23.75,5
0.99,0.00,0.01,9.77,0.61,3.36,44.19,-2.61,-23.58,5
1.00,0.01,0.00,5.68,1.40,1.65,44.17,-2.28,-23.77,5
0.98,-0.01,-0.01,8.61,-0.43,2.69,44.31,-1.97,-24.00,5
1.01,0.03,0.01,5.86,-1.83,1.77,44.63,-2.36,-24.65,5
0.98,-0.02,-0.02,6.59,-1.89,1.71,44.15,-2.42,-23.93,5
0.99,0.01,-0.00,5.74,-1.46,1.40,44.31,-2.39,-23.02,5
0.98,-0.02,-0.02,5.37,-1.22,1.59,44.43,-2.27,-23.45,5
0.99,0.01,-0.00,5.98,-2.26,1.89,44.36,-2.43,-24.30,5
0.98,-0.02,0.03,5.49,-6.71,1.16,44.35,-2.04,-23.91,5
0.99,0.01,0.01,6.04,-4.88,1.46,43.75,-2.60,-23.62,5
1.00,0.01,-0.02,6.23,-3.85,1.34,44.07,-2.09,-24.21,5
0.99,-0.01,-0.01,6.71,-6.65,-0.31,44.24,-2.17,-23.83,5
0.99,0.00,0.05,10.56,-14.28,2.69,44.02,-1.83,-24.87,5
1.01,0.01,0.01,8.42,-8.48,0.92,44.20,-1.82,-24.17,5
0.99,-0.01,0.04,11.60,-10.44,-1.71,43.91,-2.37,-24.35,5
1.00,-0.01,0.04,11.17,-11.29,-0.85,44.45,-2.48,-25.01,5
0.98,-0.02,0.04,23.86,-15.14,-1.83,44.60,-2.59,-25.50,5
1.01,-0.01,0.07,15.32,-8.97,-12.70,44.96,-2.50,-23.96,5
0.97,-0.03,0.08,41.02,-15.08,0.92,45.02,-3.34,-25.55,5
0.99,-0.01,0.08,37.05,2.01,5.07,45.56,-2.81,-24.82,5
0.98,-0.02,0.06,63.35,-4.33,-3.48,45.47,-2.47,-24.69,5
1.03,-0.05,0.07,71.17,-5.19,-3.42,45.69,-1.67,-23.74,5
0.99,-0.05,0.07,70.43,-2.62,-2.01,45.28,-1.28,-22.77,5
0.99,-0.09,0.05,93.69,-8.06,-1.16,45.30,-0.06,-22.09,5
0.98,-0.08,0.05,91.49,-5.86,5.25,45.09,1.38,-20.94,5
0.98,-0.07,0.07,74.95,-6.59,9.16,45.15,1.72,-21.13,5
0.98,-0.04,0.05,95.76,-6.96,13.79,44.91,1.72,-19.48,5
0.98,-0.02,0.07,70.01,-5.25,12.70,44.89,1.26,-18.33,5
0.98,-0.06,0.07,70.98,-4.94,0.06,44.91,2.45,-17.15,5
1.00,-0.06,0.03,69.27,-7.75,4.15,45.95,2.12,-17.22,5
0.99,-0.01,0.08,39.55,-1.59,1.28,45.31,1.87,-16.48,5
0.99,-0.07,0.06,48.03,-2.75,0.55,45.18,1.82,-16.50,5
0.96,-0.05,0.06,47.79,-0.73,-1.04,45.78,1.95,-15.34,5
0.98,-0.05,0.05,31.86,-7.63,3.11,45.31,2.62,-14.61,5
0.97,-0.06,0.05,33.94,-4.15,-6.29,45.36,2.49,-15.14,5
0.97,-0.09,0.04,28.32,-4.21,-0.73,45.26,2.67,-13.93,5
0.97,-0.05,0.06,30.70,-0.79,-0.12,45.45,1.81,-15.09,5
1.01,-0.08,0.03,40.59,-4.46,-1.53,45.98,2.04,-13.09,5
0.97,-0.07,0.05,23.32,0.37,3.54,45.54,2.17,-13.16,5
0.98,-0.07,0.03,7.75,-4.76,12.02,45.53,2.33,-13.24,5
0.96,-0.02,0.07,-3.54,-0.73,16.36,45.83,2.00,-13.64,5
0.99,-0.03,0.05,-2.32,-0.67,5.74,45.87,1.21,-12.00,5
0.99,-0.05,0.05,-8.61,5.19,-5.92,45.98,1.97,-12.84,5
0.98,-0.05,0.05,10.07,-6.53,-20.63,44.29,3.42,-13.26,5
1.03,-0.46,0.19,-16.11,2.44,-15.20,43.37,3.47,-13.38,5
1.02,-0.03,0.06,-5.86,-2.32,6.35,43.43,4.69,-14.79,5
1.01,-0.05,0.05,31.92,-8.91,-11.54,42.82,4.82,-14.05,5
0.97,-0.12,0.03,33.26,-3.85,-13.43,42.58,5.18,-13.78,5
0.97,-0.11,0.02,11.72,-0.18,-0.31,42.98,4.82,-13.31,5
0.99,-0.11,0.04,11.54,-2.38,-2.32,42.52,5.20,-12.56,5
0.98,-0.13,0.06,1.34,1.71,5.31,42.92,5.52,-12.77,5
0.97,-0.09,-0.00,9.89,-0.79,1.53,42.98,5.02,-12.49,5
0.99,-0.09,0.03,7.39,-3.85,4.03,42.66,5.25,-12.18,5
1.00,-0.11,0.06,1.89,-4.33,4.52,42.61,4.76,-12.95,5
0.98,-0.05,0.01,5.43,-3.23,3.91,42.76,4.86,-12.30,5
0.96,-0.14,0.03,8.24,-3.60,-0.06,42.86,4.98,-12.68,5
0.98,-0.07,0.00,1.10,-3.05,4.88,43.16,5.00,-12.18,5
0.99,-0.12,0.05,13.61,-7.08,-2.50,42.80,5.37,-12.37,5
1.01,-0.15,0.03,-2.26,-1.59,5.37,43.37,5.14,-12.07,5
0.98,-0.11,0.01,2.75,-4.33,3.42,43.41,5.02,-13.33,5
1.00,-0.10,0.07,12.21,-5.25,1.95,43.23,5.35,-13.43,5
0.98,-0.11,0.05,8.61,-2.62,1.71,43.41,5.69,-13.15,5
0.99,-0.07,0.03,2.38,-4.33,1.77,43.08,4.65,-12.43,5
0.99,-0.11,0.07,17.33,-3.17,-2.56,43.03,4.57,-12.21,5
0.98,-0.09,0.02,2.50,-0.43,5.49,43.49,4.91,-12.90,5
0.99,-0.07,0.05,3.23,-2.62,-0.06,43.37,4.60,-12.52,5
0.97,-0.09,0.03,14.65,-1.71,-2.44,43.12,4.68,-12.61,5
0.98,-0.11,0.04,12.51,-2.62,-0.18,43.16,4.28,-11.41,5
0.98,-0.09,0.02,20.57,-3.23,-2.87,42.82,4.61,-12.26,5
0.99,-0.12,0.05,17.82,-4.39,-0.06,43.03,4.91,-11.60,5
0.99,-0.10,0.02,12.63,-3.17,-1.28,42.88,4.91,-10.28,5
0.99,-0.12,0.05,8.42,-5.37,0.92,42.70,4.97,-10.94,5
1.00,-0.13,0.06,6.47,-1.53,3.36,42.81,5.24,-10.91,5
0.99,-0.12,0.03,3.05,-2.56,3.05,42.92,4.48,-11.35,5
0.98,-0.10,0.04,-0.61,-2.01,4.52,43.08,4.39,-11.56,5
0.99,-0.11,0.04,4.58,-1.65,2.32,43.07,4.87,-11.21,5
0.98,-0.09,0.02,-0.67,-2.38,3.42,42.92,4.66,-11.39,5
0.98,-0.11,0.05,2.08,-2.14,2.44,42.86,4.72,-11.69,5
0.99,-0.09,0.03,2.44,-1.95,2.62,43.07,4.10,-11.44,5
0.99,-0.10,0.04,2.87,-3.42,1.40,43.01,4.16,-11.88,5
0.99,-0.09,0.03,3.05,-0.24,3.78,42.64,4.66,-11.11,5
0.98,-0.10,0.02,0.24,-0.49,4.52,42.91,4.64,-11.63,5
0.99,-0.09,0.04,-0.06,-1.95,4.33,43.08,4.30,-10.68,5
0.99,-0.10,0.04,-2.44,-0.43,5.68,43.09,4.11,-12.57,5
0.98,-0.08,0.01,0.31,-2.14,3.48,43.04,5.11,-12.02,5
0.99,-0.06,0.02,0.06,-1.22,4.82,43.04,4.54,-12.07,5
0.99,-0.09,0.03,1.53,-2.32,2.32,43.14,4.80,-11.87,5
0.98,-0.06,0.02,0.98,-1.10,3.85,43.77,4.00,-11.50,5
0.99,-0.08,0.03,3.85,-2.87,3.11,43.20,4.10,-11.19,5
0.98,-0.08,0.02,3.42,-2.20,3.42,43.38,4.15,-11.72,5
1.00,-0.08,0.04,4.70,-3.42,3.11,43.10,4.35,-11.22,5
0.98,-0.06,0.02,2.81,-3.17,2.99,43.40,4.38,-11.46,5
1.00,-0.08,0.05,3.17,-2.75,2.14,42.82,4.15,-11.49,5
0.98,-0.05,-0.00,4.27,-0.92,2.99,43.71,4.52,-11.76,5
1.00,-0.08,0.05,5.31,-3.23,0.55,42.91,3.97,-11.50,5
0.96,-0.05,0.02,5.68,-2.81,1.65,42.66,4.80,-12.19,5
0.98,-0.07,0.02,5.37,-2.93,0.24,43.29,4.37,-11.35,5
0.97,-0.07,-0.00,3.78,-1.46,1.46,43.36,4.27,-12.13,5
1.00,-0.07,0.05,7.02,-3.85,0.79,43.18,3.99,-11.95,5
0.97,-0.07,0.01,3.91,-2.62,2.99,43.58,3.76,-12.40,5
0.98,-0.08,0.03,6.16,-1.59,3.48,43.90,4.19,-11.46,5
0.99,-0.08,0.03,7.45,-1.89,-0.98,43.31,4.03,-11.68,5
0.98,-0.06,0.03,5.98,-2.75,2.44,43.91,3.69,-11.67,5
0.98,-0.07,0.03,6.04,0.18,-2.14,43.76,3.80,-11.56,5
0.99,-0.08,0.02,16.60,-3.30,-4.15,43.41,3.92,-11.15,5
0.99,-0.10,0.00,13.98,-0.18,-7.57,43.25,4.17,-12.24,5
0.99,-0.07,0.00,7.39,-2.14,-3.66,42.91,4.35,-11.27,5
0.97,-0.15,-0.02,11.90,-5.31,-8.00,43.20,4.87,-11.74,5
0.99,-0.11,0.02,19.17,-9.64,8.67,43.13,4.14,-11.51,5
0.99,-0.07,0.02,32.65,-8.54,4.64,43.40,4.36,-10.68,5
0.99,-0.08,0.04,26.00,-4.94,5.80,44.25,2.82,-11.23,5
0.99,-0.08,0.02,32.17,-3.05,0.06,44.12,3.39,-10.74,5
0.99,-0.08,0.02,28.69,-2.56,0.55,44.19,2.78,-11.02,5
0.98,-0.09,0.01,24.11,-3.42,0.12,44.56,2.83,-9.99,5
0.99,-0.09,0.02,29.17,-3.78,0.18,44.56,2.22,-9.36,5
0.98,-0.10,0.01,25.88,-4.76,-0.37,44.49,2.19,-9.30,5
0.98,-0.09,0.02,44.98,-5.74,3.11,44.53,2.09,-8.63,5
1.00,-0.07,0.03,41.14,-5.19,2.62,44.82,1.39,-9.59,5
0.98,-0.08,0.02,47.00,-7.69,7.45,45.09,1.34,-8.45,5
1.00,-0.06,0.02,55.42,-5.74,2.50,44.87,0.78,-8.06,5
0.96,-0.10,-0.00,30.27,-2.38,3.30,45.10,0.38,-7.39,5
1.00,-0.06,0.03,54.57,-1.77,-0.24,45.41,0.01,-6.56,5
0.98,-0.09,-0.01,28.81,-3.42,0.00,45.34,-1.22,-6.86,5
1.00,-0.09,-0.01,26.61,7.08,7.26,45.54,-0.60,-6.35,5
1.00,-0.09,-0.02,57.07,-13.24,-6.71,45.87,-1.83,-6.14,5
0.97,-0.08,0.02,12.27,-4.09,7.63,45.85,-1.82,-5.18,5
0.98,-0.09,-0.01,36.07,-7.32,0.67,46.00,-2.64,-6.03,5
1.04,-0.08,0.05,9.83,-3.48,12.45,45.81,-2.33,-4.82,5
0.99,-0.07,0.03,67.44,1.40,7.20,46.02,-3.21,-5.73,5
0.99,-0.06,-0.03,29.79,-4.21,2.32,46.04,-3.21,-4.44,5
0.97,-0.05,0.07,139.95,-20.39,3.23,46.55,-3.22,-3.70,5
1.00,-0.06,0.00,82.03,-16.30,-2.08,46.17,-5.35,-4.05,5
0.97,-0.06,0.04,32.78,-16.17,8.73,46.00,-5.43,-4.11,5
0.98,-0.06,0.02,30.33,-4.58,5.25,46.69,-5.35,-3.65,5
0.99,-0.05,-0.00,38.57,-9.22,0.79,47.20,-5.94,-2.84,5
1.00,-0.07,0.06,78.00,-6.23,-3.23,47.17,-6.87,-2.92,5
0.97,-0.07,0.00,41.87,-5.86,-0.12,47.01,-6.99,-3.53,5
0.99,-0.06,0.02,7.75,0.43,4.58,46.67,-6.91,-3.70,5
0.96,-0.04,-0.02,22.09,-3.17,1.59,46.67,-7.85,-3.76,5
1.00,-0.06,0.02,22.77,-5.07,5.00,47.22,-8.54,-3.06,5
0.99,-0.09,0.08,59.94,-6.59,-1.59,47.12,-8.94,-3.60,5
0.99,-0.03,-0.02,27.10,-2.93,1.95,47.00,-8.72,-2.45,5
0.98,-0.06,0.04,56.82,-10.38,3.42,46.83,-9.16,-2.53,5
0.99,-0.09,0.04,54.38,1.46,4.27,46.78,-9.19,-3.42,5
0.98,-0.06,0.02,32.71,-1.34,5.68,46.58,-9.94,-3.88,5
1.00,-0.08,0.03,21.30,-5.55,1.28,46.62,-10.52,-3.64,5
0.99,-0.07,0.03,0.79,-1.53,1.77,45.92,-10.17,-2.99,5
1.01,-0.07,0.03,9.09,-5.25,-0.98,46.28,-9.99,-3.20,5
0.99,-0.09,0.04,-3.91,1.83,0.73,45.75,-8.81,-2.42,5
1.01,-0.07,0.01,-10.07,-8.48,-4.03,45.74,-7.97,-2.20,5
0.91,0.03,0.25,3.66,-9.70,-13.24,45.17,-7.82,-3.50,5
0.96,-0.08,0.02,18.92,2.87,-3.48,45.03,-7.98,-2.95,5
1.00,-0.13,0.02,22.09,1.22,-2.26,45.01,-7.70,-3.55,5
1.00,-0.10,-0.00,36.13,-4.64,-3.17,45.12,-8.13,-2.44,5
0.99,-0.10,0.06,49.74,-5.07,-13.67,45.09,-8.44,-2.53,5
0.96,-0.15,0.04,60.55,-1.04,-10.44,45.07,-8.03,-2.26,5
0.99,-0.14,0.01,59.27,-0.18,-18.31,44.27,-8.42,-2.83,5
0.96,-0.13,0.02,26.37,-3.85,-7.69,44.18,-8.80,-2.81,5
0.98,-0.18,-0.00,21.55,-0.55,-4.15,44.86,-9.08,-3.50,5
0.98,-0.19,-0.02,14.59,0.12,-2.26,44.68,-8.89,-2.45,5
0.97,-0.17,-0.01,16.17,-3.97,-2.69,44.32,-8.53,-2.27,5
0.98,-0.19,-0.02,16.17,2.99,-3.85,44.12,-8.46,-3.10,5
0.96,-0.16,0.01,5.74,-3.36,4.33,44.41,-8.13,-2.22,5
0.97,-0.17,-0.04,9.52,-0.43,0.37,44.38,-8.54,-1.87,5
0.97,-0.18,-0.02,2.20,-5.00,1.28,44.49,-8.67,-2.53,5
0.98,-0.20,-0.05,7.57,0.06,0.06,44.98,-8.48,-1.48,5
0.97,-0.18,-0.04,2.26,-3.60,1.34,44.19,-8.30,-1.71,5
0.98,-0.16,-0.01,2.81,-3.42,2.50,44.40,-8.20,-2.34,5
0.98,-0.21,-0.05,3.23,-2.93,0.43,44.03,-8.52,-1.88,5
0.97,-0.18,-0.01,-3.23,-5.43,2.44,44.32,-8.67,-2.50,5
0.98,-0.18,-0.03,-0.06,-4.09,4.09,44.53,-8.01,-2.44,5
0.98,-0.19,-0.01,0.92,-4.46,2.87,44.53,-8.31,-1.97,5
0.99,-0.21,-0.04,2.01,-3.23,1.71,44.60,-8.41,-2.99,5
0.97,-0.17,-0.02,-0.37,-4.70,3.48,44.51,-8.97,-2.45,5
0.98,-0.20,-0.02,4.21,-2.26,3.42,44.32,-8.46,-2.78,5
0.97,-0.15,-0.01,2.14,-5.74,3.30,44.93,-8.06,-2.95,5
0.99,-0.20,-0.03,4.52,-2.69,0.00,44.56,-8.75,-2.44,5
0.97,-0.16,0.00,2.81,-5.13,-2.32,44.48,-7.98,-1.87,5
0.99,-0.22,-0.03,4.58,-3.36,-1.04,44.68,-8.61,-2.97,5
0.98,-0.19,0.03,-1.22,-7.81,-1.53,44.70,-7.96,-2.77,5
0.97,-0.18,-0.01,4.39,-3.97,-2.14,44.73,-8.50,-2.70,5
0.96,-0.17,-0.01,8.18,-2.01,-3.97,44.58,-8.26,-2.82,5
0.96,-0.19,-0.00,10.31,-2.69,-6.41,44.59,-8.50,-2.71,5
0.96,-0.21,-0.03,9.70,-3.11,-3.85,44.70,-8.18,-3.44,5
0.97,-0.20,0.01,9.28,-4.46,-5.55,44.78,-7.70,-3.04,5
0.97,-0.25,-0.03,7.87,-3.72,-2.38,44.76,-7.15,-2.12,5
0.96,-0.21,-0.02,6.90,-3.23,-2.99,44.74,-8.08,-2.31,5
0.96,-0.22,-0.01,6.59,-4.27,-1.95,44.68,-7.80,-3.12,5
0.99,-0.28,-0.00,6.65,-3.60,-5.00,44.81,-7.82,-2.69,5
0.96,-0.24,-0.03,8.18,-7.08,-1.10,44.58,-7.96,-3.41,5
0.97,-0.27,0.02,7.26,-6.65,-5.80,45.10,-7.56,-3.31,5
0.96,-0.26,0.00,3.05,-6.23,-0.67,44.68,-6.93,-3.11,5
0.95,-0.23,-0.00,4.03,-6.59,-4.39,44.71,-6.82,-4.03,5
0.95,-0.23,0.03,2.81,-9.09,1.10,45.09,-7.35,-3.48,5
0.99,-0.26,0.03,-1.04,-11.66,2.38,45.18,-7.02,-4.19,5
0.95,-0.22,0.03,-1.46,-23.86,-2.81,45.04,-6.98,-4.50,5
0.96,-0.26,0.07,-5.62,-27.28,-1.77,45.35,-6.76,-5.04,5
0.93,-0.23,0.09,-4.15,-23.38,-0.79,45.84,-6.77,-4.61,5
0.96,-0.27,0.17,-9.03,-26.79,-2.38,45.54,-6.14,-6.04,5
0.95,-0.26,0.13,-1.59,-19.59,-0.24,46.33,-6.07,-7.48,5
0.94,-0.26,0.16,4.52,-17.15,0.06,45.64,-6.32,-7.17,5
0.94,-0.26,0.19,5.07,-16.36,-1.95,46.17,-6.12,-7.06,5
0.93,-0.26,0.18,6.84,-16.72,-2.99,46.26,-6.29,-7.58,5
0.94,-0.27,0.19,7.57,-20.69,-2.62,46.37,-5.66,-8.26,5
0.92,-0.27,0.22,3.54,-16.11,-4.15,46.62,-6.51,-8.28,5
0.93,-0.28,0.23,5.31,-17.40,-8.24,46.15,-5.98,-8.35,5
0.92,-0.29,0.26,6.16,-13.24,-7.69,46.39,-5.30,-8.47,5
0.93,-0.30,0.25,7.14,-7.69,-7.20,46.45,-5.26,-9.85,5
0.92,-0.32,0.25,6.23,-7.08,-11.47,46.61,-5.33,-8.92,5
0.90,-0.33,0.26,13.00,-0.55,-12.63,46.58,-4.68,-10.56,5
0.90,-0.35,0.25,21.24,7.02,-15.32,46.62,-4.09,-9.39,5
0.89,-0.34,0.22,25.51,8.67,-18.19,46.18,-3.82,-9.41,5
0.90,-0.40,0.23,14.10,-3.78,-24.60,46.58,-3.52,-9.08,5
0.90,-0.40,0.19,15.69,5.68,-11.54,45.57,-2.75,-9.14,5
0.87,-0.43,0.18,11.17,0.24,-20.87,45.30,-1.75,-7.60,5
0.86,-0.45,0.19,17.70,8.06,-20.02,45.48,-2.00,-8.42,5
0.88,-0.43,0.18,9.46,5.00,-14.71,44.67,-1.07,-7.96,5
0.87,-0.54,0.18,18.68,17.88,-5.92,44.70,-0.76,-6.85,5
0.86,-0.49,0.11,19.65,19.23,-7.69,45.00,-0.56,-6.77,5
0.86,-0.52,0.10,15.75,14.04,-12.88,43.53,-0.44,-6.56,5
0.84,-0.51,0.07,19.17,15.38,-6.35,43.48,-0.94,-5.10,5
0.88,-0.72,0.10,-6.96,10.62,-4.52,42.82,0.45,-5.71,5
0.83,-0.51,0.04,1.28,6.77,-4.70,42.54,1.27,-4.09,5
0.85,-0.57,0.06,3.23,13.55,0.98,42.32,0.79,-3.77,5
0.83,-0.50,0.02,3.54,10.25,-2.44,42.18,1.22,-4.30,5
0.86,-0.59,0.03,8.24,4.27,-4.64,41.54,1.86,-3.53,5
0.81,-0.53,0.00,5.25,5.74,0.24,41.35,2.20,-3.50,5
0.83,-0.54,0.01,17.09,1.40,-11.54,41.13,1.73,-3.30,5
0.81,-1.50,-0.04,26.92,-6.90,-8.42,42.35,0.51,-4.09,5
0.87,-0.70,0.05,13.06,5.49,-11.41,41.63,1.07,-2.31,5
0.82,-0.55,-0.05,17.64,-4.58,-4.64,41.87,0.77,-1.42,5
0.79,-0.59,-0.05,15.32,-0.67,-5.43,42.09,0.88,-1.88,5
0.83,-0.60,-0.04,-2.20,14.40,0.37,41.96,1.43,-2.14,5
0.78,-0.56,-0.04,4.33,22.40,1.71,41.93,1.81,-2.04,5
0.83,-0.61,-0.05,-7.26,27.71,4.27,41.97,1.59,-1.65,5
0.79,-0.55,-0.08,-5.07,28.69,3.97,41.82,0.93,-0.72,5
0.79,-0.58,-0.10,-11.11,27.34,-0.85,41.08,1.57,0.11,5
0.82,-0.60,-0.12,-4.03,30.33,4.94,40.69,1.73,2.20,5
0.79,-0.58,-0.13,1.16,25.39,3.66,39.40,1.55,1.34,5
0.79,-0.58,-0.18,6.10,22.83,5.49,39.26,1.93,2.47,5
0.79,-0.59,-0.20,11.84,24.60,3.60,39.18,1.38,2.51,5
0.79,-0.59,-0.21,7.63,24.17,8.12,38.23,1.44,2.64,5
0.77,-0.57,-0.23,-1.53,28.32,16.85,38.32,1.46,3.26,5
0.78,-0.54,-0.23,-10.74,38.57,25.21,37.62,1.03,3.69,5
0.79,-0.54,-0.31,-11.11,47.55,32.17,37.48,-0.05,5.81,5
0.79,-0.50,-0.31,-14.89,46.57,34.06,36.62,0.43,5.87,5
0.79,-0.51,-0.35,-9.89,46.39,31.74,36.23,-0.26,6.69,5
0.78,-0.45,-0.39,-12.21,41.75,32.10,36.22,-0.93,6.32,5
0.80,-0.47,-0.41,-15.20,28.02,24.78,35.61,-1.22,7.03,5
0.77,-0.46,-0.42,-6.84,20.14,23.56,35.51,-1.03,8.07,5
0.78,-0.45,-0.43,-10.62,18.31,27.65,35.51,-1.01,7.48,5
0.79,-0.41,-0.44,-1.04,14.89,27.59,35.40,-1.44,8.08,5
0.81,-0.43,-0.40,-5.00,8.12,32.10,35.16,-1.95,8.35,5
0.80,-0.40,-0.45,-9.09,12.82,26.79,35.31,-0.93,7.26,5
0.81,-0.38,-0.43,-3.48,10.13,30.27,34.91,-1.43,8.57,5
0.80,-0.36,-0.47,-2.87,18.55,23.38,34.47,-1.45,8.00,5
0.78,-0.32,-0.46,-8.91,10.07,37.17,34.69,-1.29,7.82,5
0.83,-0.34,-0.46,1.53,20.87,23.50,34.33,-1.57,8.98,5
0.79,-0.29,-0.49,-12.02,13.92,32.96,33.95,-1.56,8.95,5
0.82,-0.31,-0.50,-3.48,14.89,26.55,33.92,-1.87,8.67,5
0.80,-0.26,-0.51,-18.37,11.35,38.76,33.47,-1.68,9.03,5
0.82,-0.27,-0.52,-12.82,5.55,32.35,33.54,-1.44,8.37,5
0.80,-0.24,-0.53,-19.17,4.94,27.77,33.61,-0.72,9.06,5
0.85,-0.24,-0.49,-31.80,-6.96,48.34,34.20,-1.70,8.87,5
0.86,-0.20,-0.49,-23.74,-1.95,38.88,34.12,-1.31,8.31,5
0.85,-0.21,-0.48,-19.47,-2.99,46.69,34.96,-1.18,6.23,5
0.87,-0.17,-0.47,-9.89,-1.10,37.11,35.10,-1.46,8.65,5
0.85,-0.13,-0.48,-13.79,-7.08,40.53,35.55,-2.36,8.36,5
0.90,-0.14,-0.47,-21.48,-11.23,40.34,35.88,-1.16,6.77,5
0.87,-0.10,-0.44,-12.88,-19.59,39.25,36.08,-1.22,7.25,5
0.90,-0.07,-0.43,-17.21,-33.57,46.26,37.05,-2.45,6.16,5
0.90,-0.02,-0.37,0.00,-27.89,31.01,37.18,-2.55,5.76,5
0.91,0.00,-0.37,-3.05,-24.72,31.92,38.18,-2.93,4.08,5
0.96,0.01,-0.34,3.11,-26.06,26.31,38.95,-3.87,4.66,5
0.92,0.05,-0.30,7.02,-38.33,33.02,39.16,-3.87,4.48,5
0.97,0.08,-0.27,12.94,-43.76,34.30,40.09,-5.18,3.09,5
0.92,0.11,-0.23,16.11,-47.42,30.70,41.44,-5.38,1.99,5
0.99,0.13,-0.19,21.55,-45.72,27.16,42.10,-6.40,0.78,5
0.95,0.17,-0.15,35.89,-57.56,28.63,43.19,-8.50,-0.13,5
0.98,0.22,-0.04,54.02,-66.28,24.17,43.51,-9.50,-1.79,5
0.97,0.22,0.05,49.80,-68.85,21.12,44.36,-10.44,-3.85,5
0.94,0.25,0.11,46.88,-39.55,12.33,45.14,-10.94,-5.43,5
0.96,0.25,0.13,48.03,-26.79,3.60,45.73,-11.77,-5.91,5
0.93,0.24,0.14,51.33,-33.69,-5.62,45.94,-12.43,-6.70,5
0.97,0.21,0.21,48.40,-34.18,-2.38,46.42,-12.85,-7.93,5
0.90,0.20,0.24,64.27,-36.32,-3.97,46.86,-12.94,-8.72,5
0.94,0.18,0.27,55.48,-42.60,-1.89,47.46,-13.55,-10.17,5
0.89,0.16,0.33,46.26,-42.97,-4.70,47.78,-13.90,-11.17,5
0.93,0.15,0.38,48.77,-36.93,-7.45,47.69,-14.15,-12.21,5
0.86,0.13,0.40,44.43,-40.34,-7.63,48.33,-13.29,-13.33,5
0.87,0.09,0.46,48.58,-31.37,-3.36,48.06,-13.92,-13.02,5
0.89,0.08,0.45,54.14,-18.80,-5.68,47.79,-13.59,-15.54,5
0.86,0.02,0.52,29.30,-16.05,-6.77,47.91,-12.93,-14.77,5
0.88,0.01,0.50,27.71,-3.97,-14.89,47.95,-12.60,-15.82,5
0.85,-0.00,0.49,41.08,5.19,-15.56,47.80,-11.55,-15.50,5
0.90,-0.06,0.48,56.46,27.40,-12.45,47.02,-11.16,-15.34,5
0.83,-0.08,0.41,41.63,45.72,-13.85,46.81,-9.59,-14.28,5
0.94,-0.11,0.39,50.90,58.84,-6.35,46.69,-9.57,-12.15,5
0.93,-0.13,0.32,44.62,51.27,-4.39,46.20,-9.13,-10.05,5
0.95,-0.17,0.25,59.94,59.08,-2.69,45.78,-9.22,-8.80,5
0.96,-0.16,0.16,42.18,56.46,-10.19,45.12,-8.33,-7.79,5
0.98,-0.18,0.12,43.70,49.93,-13.18,44.57,-8.68,-6.29,5
0.97,-0.19,0.07,32.35,42.72,-13.67,44.47,-8.62,-4.44,5
0.96,-0.21,0.02,35.34,37.41,-14.40,43.73,-8.87,-4.36,5
0.99,-0.23,-0.04,34.97,39.06,-19.90,43.37,-8.19,-2.55,5
0.98,-0.28,-0.08,29.85,21.85,-34.24,43.46,-8.02,-2.03,5
0.96,-0.31,-0.10,17.82,23.07,-33.57,42.92,-7.12,0.20,5
0.92,-0.32,-0.13,20.02,14.71,-35.89,42.38,-6.19,-0.20,5
0.93,-0.36,-0.14,22.71,-1.83,-41.20,42.31,-5.80,-0.18,5
0.87,-0.38,-0.14,18.13,-4.09,-32.10,41.92,-4.94,-0.04,5
0.88,-0.43,-0.15,14.83,-11.60,-29.42,42.41,-4.68,0.09,5
0.88,-0.44,-0.13,10.01,-12.02,-42.18,42.47,-3.64,0.01,5
0.85,-0.52,-0.11,13.12,-16.48,-49.68,41.97,-2.54,-0.55,5
0.81,-0.52,-0.12,14.59,-9.83,-53.83,41.87,-1.55,-0.43,5
0.83,-0.65,-0.13,6.23,-5.86,-46.81,41.48,0.63,-0.26,5
0.79,-0.61,-0.12,-12.88,-12.15,-20.57,41.11,1.37,-1.09,5
0.77,-0.62,-0.10,-17.09,-24.11,-21.06,41.11,1.77,-2.59,5
0.76,-0.64,-0.06,-32.10,-35.46,-20.02,41.43,2.47,-2.83,5
0.75,-0.67,0.03,-51.27,-58.17,-13.61,41.96,3.54,-4.70,5
0.72,-0.67,0.10,-35.77,-47.97,-16.17,42.18,3.94,-6.69,5
0.74,-0.69,0.11,-60.73,-56.09,11.29,42.91,3.78,-8.70,5
0.70,-0.62,0.27,-67.75,-53.10,23.99,43.51,3.45,-10.33,5
0.74,-0.63,0.35,-39.55,-54.14,40.65,44.85,2.43,-12.18,5
0.72,-0.53,0.42,-75.87,-50.54,61.46,45.28,1.07,-13.83,5
0.75,-0.48,0.46,-58.11,-38.82,74.58,45.50,-0.85,-16.88,5
0.74,-0.39,0.51,-48.83,-18.80,67.93,46.57,-2.91,-18.51,5
0.78,-0.38,0.55,-57.13,-13.00,63.35,47.47,-5.11,-18.69,5
0.81,-0.22,0.57,-57.25,-4.15,53.59,46.85,-6.29,-19.04,5
0.79,-0.17,0.60,-51.27,-5.98,44.98,46.88,-7.45,-19.06,5
0.80,-0.08,0.57,-56.82,6.90,44.62,47.20,-9.19,-18.75,5
0.81,0.00,0.57,-62.19,16.24,44.74,47.19,-10.85,-19.03,5
0.83,0.09,0.56,-83.56,21.91,52.12,46.78,-12.40,-17.72,5
0.80,0.15,0.52,-61.58,28.93,42.18,45.85,-13.16,-17.46,5
0.88,0.21,0.50,-66.83,31.62,41.63,46.19,-14.17,-15.61,5
0.83,0.27,0.40,-60.79,30.21,25.39,45.78,-14.56,-15.36,5
0.84,0.33,0.39,-52.00,33.94,22.58,45.47,-15.10,-12.85,5
0.85,0.35,0.33,-59.88,24.29,22.34,45.18,-15.59,-12.38,5
0.89,0.40,0.32,-60.30,38.94,26.86,44.64,-15.56,-10.60,5
0.85,0.43,0.21,-49.26,42.48,17.58,44.47,-15.77,-8.94,5
0.89,0.46,0.17,-55.79,46.57,7.69,43.62,-15.31,-7.70,5
0.88,0.45,0.08,-43.64,49.50,-7.08,42.61,-14.61,-5.57,5
0.88,0.45,0.03,-49.26,50.17,-15.93,41.93,-13.24,-5.62,5
0.88,0.43,-0.05,-40.53,57.31,-27.95,41.56,-11.78,-3.55,5
0.89,0.39,-0.11,-43.58,55.85,-27.34,40.11,-9.79,-0.54,5
0.90,0.34,-0.20,-37.29,47.55,-41.08,39.59,-8.68,1.07,5
0.92,0.29,-0.26,-25.45,36.62,-36.93,39.06,-7.17,0.31,5
0.89,0.26,-0.28,-17.76,24.78,-34.24,38.10,-5.52,2.38,5
0.91,0.21,-0.32,-23.93,27.95,-34.06,38.23,-4.39,2.95,5
0.90,0.17,-0.35,-29.11,24.35,-30.33,37.00,-3.64,4.30,5
0.90,0.12,-0.39,-28.50,17.70,-34.30,36.51,-1.99,3.96,5
0.92,0.09,-0.38,-29.72,15.56,-36.01,36.13,0.32,3.66,5
0.89,0.03,-0.43,-36.38,13.67,-51.51,35.41,2.06,4.76,5
0.91,-0.04,-0.43,-38.27,5.80,-61.22,34.46,3.72,4.59,5
0.89,-0.15,-0.46,-19.47,-5.98,-47.06,33.86,5.51,4.06,5
0.87,-0.15,-0.42,-15.14,-16.60,-36.87,33.87,6.54,4.09,5
0.86,-0.19,-0.39,-16.85,-4.52,-52.61,33.74,7.21,3.37,5
0.88,-0.26,-0.39,-10.50,-9.09,-60.36,32.95,8.52,3.22,5
0.89,-0.33,-0.49,-13.00,-24.05,-17.03,32.65,9.38,2.03,5
0.85,-0.43,-0.24,7.87,-44.19,3.23,34.31,8.67,1.93,5
0.87,-0.29,-0.36,6.16,-8.54,-0.49,34.88,8.37,1.12,5
0.90,-0.33,-0.32,-15.44,-34.48,12.21,34.17,8.75,1.94,5
0.85,-0.51,-0.27,-8.12,-43.09,25.15,35.89,9.09,-0.43,5
0.90,-0.28,-0.27,10.68,-41.14,40.71,36.99,8.12,-0.37,5
0.97,-0.26,-0.23,10.13,-58.72,57.80,38.64,6.12,-1.98,5
0.91,-0.08,-0.08,11.96,-86.30,75.87,41.20,4.31,-2.73,5
1.01,-0.10,-0.04,9.34,-75.38,70.80,42.74,2.22,-4.63,5
0.94,-0.00,0.02,13.73,-84.47,65.00,43.93,0.65,-7.24,5
1.05,0.00,0.10,28.63,-87.04,47.61,44.90,-1.12,-9.14,5
0.92,0.09,0.24,18.68,-93.20,32.47,45.62,-2.67,-11.62,5
0.98,0.09,0.34,41.02,-90.70,23.68,46.13,-3.03,-13.15,5
0.89,0.10,0.40,63.96,-86.06,11.23,46.19,-3.88,-15.48,5
0.88,0.05,0.47,36.38,-52.80,-13.43,45.74,-3.31,-17.41,5
0.84,0.05,0.50,40.16,-52.80,-6.35,45.58,-2.95,-17.31,5
0.87,0.01,0.55,65.86,-50.78,-1.89,45.48,-2.53,-19.31,5
0.81,-0.01,0.55,39.61,-49.62,-15.69,45.68,-1.86,-20.50,5
0.76,-0.05,0.59,6.47,-52.12,-13.61,44.58,-1.73,-21.81,5
0.75,-0.06,0.66,-37.54,-70.92,-30.40,44.71,-1.34,-23.13,5
0.72,-0.13,0.68,7.26,-50.60,-37.84,43.26,-0.15,-23.80,5
0.61,-0.13,0.77,-1.46,-36.62,-74.28,42.71,1.20,-25.44,5
0.65,-0.18,0.75,-11.35,-37.90,-103.52,41.31,3.47,-27.00,5
0.61,-0.22,0.80,-2.44,-33.14,-105.90,39.94,5.63,-26.29,5
0.55,-0.29,0.78,-4.09,-25.21,-106.32,37.54,7.23,-28.03,5
0.50,-0.32,0.77,-11.23,-26.00,-90.03,35.38,8.87,-28.52,5
0.47,-0.33,0.84,-5.43,-14.10,-69.82,33.70,10.17,-29.55,5
0.44,-0.37,0.81,17.46,0.85,-63.90,32.01,11.36,-28.85,5
0.44,-0.40,0.84,-21.24,37.84,-51.45,31.15,11.77,-28.94,5
0.45,-0.41,0.81,-26.67,45.41,-37.23,31.34,12.76,-28.58,5
0.48,-0.36,0.79,-61.71,66.41,-24.48,31.26,11.74,-27.73,5
0.50,-0.39,0.82,-8.36,54.14,-30.33,31.64,11.79,-28.47,5
0.59,-0.29,0.70,-72.45,86.49,-29.17,32.58,11.43,-28.11,5
0.56,-0.33,0.71,-43.95,55.85,-39.98,31.97,11.68,-28.52,5
0.62,-0.31,0.70,-29.97,54.93,-31.01,32.35,11.47,-28.89,5
0.65,-0.33,0.69,-51.15,38.70,-19.10,32.69,10.73,-29.03,5
0.67,-0.24,0.69,-191.83,48.40,-19.04,32.85,8.72,-30.98,5
0.73,-0.04,0.77,-247.25,65.92,-18.37,33.78,4.69,-34.29,5
0.73,0.08,0.53,-294.49,52.92,-45.90,34.56,-1.54,-36.71,5
0.81,0.14,0.56,-75.44,-6.35,-49.19,34.29,-3.66,-37.59,5
0.79,0.17,0.61,-60.49,-3.11,-51.88,34.41,-4.08,-37.22,5
0.81,0.16,0.57,-84.17,2.56,-56.09,33.78,-5.44,-37.51,5
0.82,0.14,0.58,-21.30,19.84,-76.35,34.73,-5.64,-38.10,5
0.84,0.06,0.49,-36.80,26.55,-70.37,35.23,-5.57,-37.56,5
0.86,0.05,0.52,-41.75,23.44,-78.98,35.62,-5.57,-37.32,5
0.86,-0.02,0.49,-42.36,36.87,-66.35,35.96,-5.21,-36.61,5
0.87,-0.05,0.42,-35.77,40.04,-47.06,36.22,-5.19,-35.75,5
0.89,-0.06,0.39,-31.80,52.31,-37.41,37.15,-4.68,-35.86,5
0.95,-0.09,0.35,-46.26,51.88,-47.24,38.16,-5.20,-34.80,5
0.93,-0.10,0.33,-40.95,49.56,-34.73,38.10,-5.31,-33.40,5
0.94,-0.13,0.23,-30.82,49.87,-24.60,40.04,-4.74,-32.48,5
0.97,-0.14,0.23,-20.26,45.59,-10.56,40.34,-5.18,-31.81,5
1.00,-0.23,0.17,-14.59,50.42,-8.61,41.41,-5.40,-29.86,5
0.95,-0.16,0.11,-15.63,55.36,-4.33,42.16,-5.73,-29.03,5
0.99,-0.12,0.08,-24.60,61.46,-3.05,43.25,-5.35,-27.32,5
0.95,-0.16,-0.03,-19.71,61.95,-7.57,43.84,-6.01,-25.79,5
0.99,-0.18,-0.04,8.73,57.68,-11.90,45.01,-5.79,-24.90,5
0.96,-0.20,-0.16,3.36,75.81,-4.33,45.79,-5.71,-22.96,5
0.93,-0.21,-0.22,8.67,67.44,-0.79,46.53,-5.81,-20.74,5
0.95,-0.20,-0.29,24.96,57.01,-6.59,47.11,-6.56,-20.14,5
0.90,-0.20,-0.30,47.91,84.41,-14.16,47.16,-5.96,-17.41,5
0.83,-0.18,-0.49,77.09,93.14,-5.74,46.35,-4.53,-14.00,5
0.81,-0.16,-0.55,96.50,60.91,-6.47,45.92,-4.41,-11.96,5
0.79,-0.12,-0.57,97.05,52.49,14.77,46.33,-4.87,-9.47,5
0.76,-0.03,-0.68,101.62,53.04,22.16,46.78,-6.77,-7.18,5
0.74,0.06,-0.68,43.33,10.25,37.23,46.75,-8.46,-6.77,5
0.75,0.01,-0.68,30.03,6.16,62.32,46.67,-9.38,-5.90,5
0.68,0.20,-0.72,62.87,3.48,74.77,46.40,-11.45,-6.16,5
0.70,0.29,-0.66,85.33,-28.99,56.46,46.90,-14.87,-7.58,5
0.74,0.40,-0.58,60.79,-30.88,64.70,47.03,-16.58,-7.59,5
0.70,0.41,-0.57,91.00,-38.27,78.43,46.70,-19.89,-9.00,5
0.69,0.57,-0.46,141.48,-69.76,89.84,46.55,-22.28,-11.56,5
0.66,0.70,-0.32,158.75,-107.91,98.14,45.07,-24.69,-16.21,5
0.59,0.80,-0.07,132.32,-92.04,82.15,43.29,-25.96,-20.50,5
0.55,0.81,0.00,66.47,-77.94,64.51,41.75,-26.98,-24.19,5
0.49,0.83,0.08,28.99,-83.31,54.81,39.59,-27.40,-26.27,5
0.42,0.86,0.10,-7.02,-90.21,66.65,37.54,-28.43,-26.67,5
0.41,0.89,0.14,-17.58,-63.72,31.98,35.14,-28.94,-28.23,5
0.38,0.88,0.12,-12.39,-51.21,9.83,34.34,-29.39,-28.54,5
0.36,0.94,0.11,-57.86,-61.52,-3.72,33.47,-30.49,-29.83,5
0.37,0.92,0.08,-56.64,-66.04,-7.26,32.84,-30.96,-28.41,5
0.38,0.93,0.05,-79.59,-60.12,-15.32,32.76,-32.04,-27.58,5
0.40,0.92,-0.02,-65.37,-45.72,-23.56,33.07,-32.75,-27.27,5
0.44,0.89,-0.07,-56.15,-49.68,-42.85,32.91,-33.42,-25.07,5
0.49,0.85,-0.10,-56.88,-44.07,-48.77,33.70,-33.59,-24.07,5
0.53,0.82,-0.14,-40.83,-46.26,-50.48,34.44,-33.26,-23.58,5
0.57,0.79,-0.16,-27.16,-63.11,-52.67,35.45,-32.85,-22.57,5
0.63,0.76,-0.13,-14.10,-74.34,-56.88,35.93,-31.82,-25.26,5
0.72,0.72,-0.07,-7.93,-65.06,-79.77,36.55,-30.77,-24.73,5
0.78,0.63,-0.06,-18.25,-40.95,-99.98,38.29,-30.35,-25.12,5
0.79,0.56,-0.03,-17.94,-18.68,-98.51,40.11,-28.06,-25.23,5
0.84,0.52,-0.03,-36.32,-3.11,-103.09,41.58,-26.07,-24.34,5
0.86,0.33,-0.10,-54.69,20.20,-97.53,43.29,-24.49,-21.96,5
0.90,0.32,-0.10,-65.00,25.94,-87.34,43.97,-22.14,-21.72,5
0.87,0.15,-0.22,-79.83,83.19,-81.54,45.02,-19.81,-18.54,5
0.95,0.06,-0.37,-61.22,74.22,-79.10,46.19,-18.38,-16.33,5
0.87,-0.09,-0.37,-66.96,72.08,-90.15,46.35,-16.27,-13.13,5
0.87,-0.09,-0.49,-103.82,106.26,-74.28,46.22,-12.82,-9.86,5
0.80,-0.24,-0.54,-63.78,90.58,-78.74,45.12,-9.74,-7.90,5
0.70,-0.35,-0.69,4.52,67.32,-50.05,44.87,-7.64,-5.00,5
0.73,-0.38,-0.69,59.08,37.35,-21.73,44.84,-7.95,-4.32,5
0.70,-0.38,-0.70,-12.15,29.48,51.39,44.51,-8.37,-2.32,5
0.67,-0.28,-0.72,-19.35,47.24,52.06,44.24,-9.24,-1.98,5
0.71,-0.26,-0.73,-2.99,7.75,62.87,43.75,-10.89,-1.70,5
0.67,-0.27,-0.77,-0.79,4.70,92.16,43.38,-12.00,-0.72,5
0.64,-0.22,-0.67,-115.60,3.54,112.55,42.81,-13.73,-0.43,5
0.64,-0.19,-0.61,-74.65,-13.67,37.96,42.11,-13.84,-0.39,5
0.76,-0.20,-0.63,-71.47,-14.89,46.75,42.44,-13.84,0.27,5
0.76,-0.23,-0.65,-26.06,-0.92,57.01,41.96,-13.93,0.66,5
0.77,-0.28,-0.68,-30.21,-0.85,35.52,42.31,-14.81,-0.13,5
0.72,-0.22,-0.60,-79.10,-6.59,39.31,41.94,-14.29,0.72,5
0.82,-0.23,-0.62,-44.31,-9.83,62.44,41.80,-15.23,-0.27,5
0.76,-0.24,-0.57,-69.70,-3.23,53.34,42.03,-16.59,0.88,5
0.79,-0.23,-0.54,-68.91,13.92,57.62,43.12,-17.31,1.43,5
0.79,-0.19,-0.58,-129.52,29.97,54.32,41.93,-16.28,3.74,5
0.80,-0.22,-0.42,-110.78,5.74,48.40,40.94,-14.54,4.66,5
0.83,-0.48,-0.76,-97.47,-3.72,52.98,41.02,-13.32,4.88,5
0.77,-0.39,-0.53,-144.23,17.94,45.59,40.34,-11.50,4.35,5
0.81,-0.39,-0.44,-121.46,49.01,34.67,39.15,-9.16,5.19,5
0.80,-0.42,-0.47,-76.11,51.76,33.45,37.84,-6.97,6.13,5
0.82,-0.43,-0.48,-106.63,38.33,51.94,36.30,-6.01,6.97,5
0.79,-0.38,-0.40,-69.89,34.06,59.75,36.04,-4.87,7.42,5
0.81,-0.30,-0.43,-46.94,40.89,82.46,35.52,-4.47,7.34,5
0.83,-0.30,-0.45,-38.64,32.53,98.75,35.47,-4.63,8.36,5
0.85,-0.20,-0.48,-7.51,7.93,104.92,35.83,-6.34,8.06,5
0.85,-0.14,-0.48,-32.84,-28.63,96.98,36.08,-7.53,8.59,5
0.92,-0.10,-0.46,-27.59,-30.21,67.63,36.79,-8.02,8.01,5
0.93,-0.06,-0.44,-42.24,-48.58,68.42,37.93,-8.11,7.90,5
0.92,-0.03,-0.30,-51.94,-61.10,52.12,39.09,-8.03,5.96,5
0.89,0.02,-0.27,-67.57,-87.59,78.37,39.72,-8.26,4.16,5
0.98,0.04,-0.20,-73.12,-87.34,84.72,41.42,-7.69,1.64,5
0.94,0.12,-0.13,-38.51,-62.81,64.09,42.61,-8.84,-0.37,5
0.94,0.17,-0.04,-35.83,-66.41,52.31,43.95,-9.68,-1.07,5
1.00,0.25,0.02,4.21,-46.45,31.56,44.40,-10.39,-1.76,5
0.96,0.25,-0.00,49.80,-60.97,18.43,44.71,-12.07,-3.42,5
0.92,0.27,0.14,78.86,-68.48,6.65,46.00,-13.61,-6.18,5
0.96,0.24,0.21,55.66,-67.69,-6.47,46.58,-14.12,-8.42,5
0.91,0.22,0.26,53.59,-69.64,-8.24,47.25,-14.16,-10.11,5
0.90,0.17,0.34,85.63,-62.07,-14.71,47.29,-14.06,-12.05,5
0.88,0.15,0.43,42.66,-72.20,-13.79,47.39,-13.55,-14.62,5
0.85,0.11,0.50,48.34,-52.80,-15.50,47.07,-12.90,-16.54,5
0.82,0.10,0.52,20.69,-49.13,-9.16,47.19,-13.12,-17.36,5
0.82,0.07,0.59,12.57,-55.24,-4.82,46.59,-12.52,-19.24,5
0.76,0.07,0.58,31.62,-26.49,-6.41,46.47,-12.55,-20.32,5
0.78,0.04,0.64,14.16,-30.94,-6.77,46.39,-11.79,-20.52,5
0.75,0.03,0.66,36.44,-11.05,-7.93,46.61,-11.25,-21.03,5
0.79,-0.00,0.63,62.68,8.18,-15.93,45.97,-10.62,-21.07,5
0.80,-0.05,0.58,74.46,49.87,-20.94,46.17,-9.08,-20.39,5
0.79,-0.15,0.58,73.12,36.01,-18.86,45.34,-7.43,-19.26,5
0.80,-0.20,0.54,73.43,38.45,-28.69,46.34,-6.68,-17.60,5
0.86,-0.23,0.45,71.78,66.65,-14.22,46.41,-6.56,-15.27,5
0.87,-0.28,0.38,35.28,54.93,-12.33,46.58,-6.10,-13.71,5
0.90,-0.30,0.31,36.74,67.08,6.65,46.96,-5.59,-11.43,5
0.92,-0.28,0.24,24.29,64.21,14.71,46.35,-6.13,-9.66,5
0.94,-0.29,0.19,35.64,58.35,30.52,46.19,-7.62,-8.62,5
0.94,-0.24,0.10,35.22,62.38,42.91,46.30,-8.91,-6.84,5
0.95,-0.20,0.04,8.61,61.71,40.65,44.95,-9.30,-5.40,5
0.97,-0.18,-0.02,9.22,71.23,32.96,44.65,-10.52,-2.88,5
0.97,-0.13,-0.10,8.85,79.96,29.79,44.09,-11.18,-1.98,5
0.96,-0.14,-0.19,-31.19,65.80,28.38,43.29,-11.55,0.57,5
0.96,-0.11,-0.21,-16.24,65.98,25.63,41.27,-11.49,2.77,5
0.94,-0.08,-0.31,-26.31,51.27,22.83,40.53,-11.57,3.23,5
0.92,-0.07,-0.33,-15.14,43.46,15.01,39.77,-11.07,4.32,5
0.92,-0.05,-0.36,2.75,42.42,3.36,38.60,-10.88,6.40,5
0.90,-0.09,-0.42,-5.37,34.85,0.12,36.67,-10.27,7.25,5
0.90,-0.08,-0.42,0.18,30.58,-2.32,36.66,-10.31,7.13,5
0.88,-0.10,-0.47,-21.06,31.68,0.37,35.61,-9.50,8.29,5
0.84,-0.05,-0.49,-10.31,43.46,-8.06,34.75,-9.53,8.48,5
0.84,-0.16,-0.54,-24.90,50.05,-11.96,33.26,-8.15,10.08,5
0.80,-0.13,-0.58,-4.88,47.91,-8.67,32.01,-7.26,9.35,5
0.76,-0.17,-0.63,-2.08,37.66,-12.63,30.47,-7.26,10.31,5
0.74,-0.16,-0.64,6.47,21.55,-5.31,29.92,-6.25,11.16,5
0.72,-0.17,-0.65,-3.54,14.22,-8.48,29.31,-7.24,12.41,5
0.73,-0.22,-0.68,-11.41,12.88,-26.49,29.25,-5.74,10.99,5
0.70,-0.25,-0.71,-6.90,-8.30,-31.01,28.97,-6.05,11.47,5
0.68,-0.29,-0.74,-8.36,-10.99,-35.89,28.88,-4.41,12.06,5
0.70,-0.32,-0.62,-11.72,-18.31,-40.83,28.97,-3.78,11.19,5
0.69,-0.36,-0.65,8.91,-23.01,-33.87,29.39,-3.89,10.78,5
0.69,-0.38,-0.59,-16.72,-19.23,-39.61,30.37,-2.71,11.10,5
0.70,-0.43,-0.59,-10.56,-23.38,-42.30,29.98,-2.23,10.57,5
0.70,-0.49,-0.58,-4.46,-32.65,-37.05,30.68,-1.39,10.36,5
0.68,-0.48,-0.53,-15.63,-37.72,-31.37,30.90,-0.70,9.06,5
0.69,-0.55,-0.49,-8.61,-21.06,-37.66,31.68,0.82,9.75,5
0.68,-0.55,-0.49,-24.54,-24.54,-13.37,31.88,1.39,8.44,5
0.67,-0.56,-0.45,-8.54,-33.81,-22.34,31.67,2.12,8.69,5
0.69,-0.63,-0.41,-10.44,-26.12,-28.44,32.36,3.27,7.06,5
0.69,-0.62,-0.40,-4.27,-30.52,-14.28,32.74,2.99,6.36,5
0.69,-0.66,-0.37,-12.76,-39.18,-19.59,33.23,3.80,6.56,5
0.68,-0.66,-0.31,-8.79,-32.04,-12.27,33.86,4.35,6.03,5
0.68,-0.66,-0.32,-12.15,-34.91,-7.51,33.64,5.20,5.36,5
0.68,-0.68,-0.30,7.51,-47.73,-23.19,34.85,5.32,4.42,5
0.67,-0.73,-0.22,-27.53,-52.86,-5.13,35.64,5.52,3.42,5
0.68,-0.70,-0.16,-29.30,-55.54,-6.04,36.40,6.73,2.04,5
0.68,-0.74,-0.12,3.30,-43.03,-3.91,36.67,7.03,0.61,5
0.69,-0.73,-0.09,-28.08,-39.49,0.98,37.43,6.73,-1.61,5
0.69,-0.71,-0.02,-15.93,-44.49,0.98,38.00,7.43,-2.53,5
0.70,-0.76,0.02,-14.40,-37.60,4.52,38.28,7.45,-2.58,5
0.70,-0.69,0.07,-43.09,-38.27,18.43,39.28,7.31,-5.09,5
0.72,-0.74,0.11,-32.59,-36.32,20.39,39.36,7.10,-5.59,5
0.71,-0.63,0.19,-34.55,-50.05,35.16,41.05,6.87,-6.98,5
0.73,-0.66,0.26,-39.18,-43.40,28.99,41.58,6.57,-8.42,5
0.72,-0.56,0.29,-34.55,-45.29,38.45,42.29,5.85,-10.90,5
0.75,-0.59,0.34,-15.26,-33.26,22.46,42.82,4.98,-12.57,5
0.76,-0.56,0.36,-2.08,-26.43,20.63,43.84,4.37,-12.40,5
0.72,-0.53,0.39,-16.42,-28.26,12.82,44.12,4.20,-14.04,5
0.76,-0.56,0.43,-2.20,-17.03,22.16,44.32,3.83,-14.60,5
0.74,-0.49,0.44,-24.35,-25.88,21.79,43.81,3.30,-15.59,5
0.73,-0.47,0.46,-4.03,-22.89,15.93,44.34,2.87,-16.38,5
0.75,-0.46,0.48,-2.01,-24.48,16.42,44.70,3.34,-16.52,5
0.72,-0.46,0.50,14.47,-27.22,22.03,45.31,1.99,-16.47,5
0.75,-0.45,0.51,-8.54,-22.40,21.24,45.08,1.46,-16.88,5
0.73,-0.44,0.55,3.85,-11.90,5.68,44.87,0.95,-17.38,5
0.72,-0.40,0.54,-4.27,-11.47,13.85,45.40,0.71,-18.97,5
0.73,-0.41,0.55,-6.96,-8.85,18.98,45.62,0.31,-18.30,5
0.73,-0.36,0.55,-5.19,-4.09,19.71,45.75,-0.24,-18.99,5
0.77,-0.38,0.57,10.99,-7.63,18.80,45.65,-0.13,-19.80,5
0.75,-0.36,0.57,8.06,-4.94,19.23,45.98,-1.35,-19.14,5
0.74,-0.34,0.56,-5.19,-3.17,22.77,45.95,-1.89,-18.92,5
0.76,-0.33,0.57,-2.08,3.78,16.72,46.13,-2.29,-19.89,5
0.77,-0.31,0.55,0.49,7.39,26.18,46.62,-2.19,-19.45,5
0.78,-0.30,0.56,1.28,13.37,37.23,46.57,-3.17,-18.10,5
0.79,-0.24,0.52,5.55,8.18,36.25,46.51,-4.35,-18.02,5
0.81,-0.23,0.51,8.97,4.46,26.73,47.12,-5.68,-17.40,5
0.81,-0.21,0.53,5.55,-5.07,18.19,47.01,-5.43,-17.50,5
0.82,-0.19,0.53,-5.92,3.36,34.79,47.78,-6.58,-17.59,5
0.83,-0.15,0.51,-3.60,-5.55,26.79,47.36,-7.28,-16.61,5
0.84,-0.13,0.52,-3.78,-4.15,18.49,47.49,-7.59,-16.63,5
0.82,-0.12,0.52,-1.04,-7.14,12.15,47.79,-8.22,-18.54,5
0.84,-0.12,0.53,2.26,-6.59,6.65,47.39,-8.95,-16.92,5
0.81,-0.10,0.54,1.10,-5.92,4.70,47.91,-8.94,-17.80,5
0.83,-0.11,0.54,5.98,-1.28,5.62,48.06,-8.86,-18.29,5
0.82,-0.10,0.53,0.31,-1.89,5.98,47.67,-9.18,-19.75,5
0.83,-0.10,0.54,2.01,-2.20,4.39,48.16,-9.79,-18.23,5
0.83,-0.09,0.54,5.80,-4.76,3.97,47.84,-9.45,-18.92,5
0.82,-0.10,0.55,7.45,-2.08,5.68,47.83,-9.42,-17.32,5
0.82,-0.09,0.53,9.34,-0.43,6.16,47.97,-9.84,-17.22,5
0.84,-0.10,0.54,5.86,3.17,9.03,48.21,-9.62,-17.40,5
0.82,-0.09,0.52,0.12,-4.88,16.48,47.61,-10.00,-17.96,5
0.81,-0.08,0.53,-0.79,6.96,15.50,47.69,-10.31,-17.38,5
0.86,-0.06,0.51,6.90,20.14,34.48,48.45,-11.46,-16.89,5
0.84,-0.01,0.50,4.76,18.31,45.90,48.60,-12.90,-16.31,5
0.87,0.07,0.49,-14.28,15.99,53.22,48.24,-13.33,-14.76,5
0.86,0.07,0.44,-1.71,19.71,47.24,47.64,-15.20,-15.00,5
0.93,0.09,0.45,4.03,1.46,37.54,47.14,-15.91,-14.98,5
0.90,0.07,0.42,-1.89,6.59,36.50,47.13,-17.09,-14.83,5
0.87,0.19,0.42,-0.85,12.39,45.65,46.89,-17.54,-14.04,5
0.86,0.23,0.41,-1.65,-5.92,36.32,46.29,-19.42,-14.66,5
0.82,0.26,0.43,-4.15,8.18,34.12,46.48,-20.25,-13.49,5
0.82,0.33,0.53,7.87,-2.75,40.41,47.00,-21.52,-13.87,5
0.84,0.32,0.39,-5.74,-11.66,19.53,46.92,-22.84,-14.71,5
0.84,0.34,0.43,2.81,-5.19,18.31,46.48,-23.25,-14.01,5
0.90,0.35,0.45,-8.18,-5.62,2.32,46.02,-23.13,-13.85,5
0.85,0.34,0.41,-14.28,-2.75,-6.35,46.09,-22.64,-13.55,5
0.84,0.41,0.34,-28.93,-12.02,-23.62,45.95,-21.51,-13.11,5
0.83,0.15,0.45,-24.66,-18.68,-20.69,45.45,-19.90,-13.98,5
0.83,0.34,0.45,0.67,-11.96,7.02,45.46,-20.02,-15.05,5
0.82,0.32,0.40,0.31,-10.62,4.88,45.03,-19.85,-14.36,5
0.81,0.35,0.44,5.00,-3.48,6.65,45.46,-20.06,-14.31,5
0.84,0.33,0.43,2.87,-1.16,6.04,45.15,-19.70,-14.18,5
0.82,0.34,0.43,2.50,1.16,5.00,45.32,-20.23,-13.81,5
0.83,0.34,0.42,2.87,-4.58,3.23,45.53,-20.42,-14.22,5
0.81,0.35,0.46,6.16,-3.48,4.70,45.42,-20.51,-14.53,5
0.82,0.32,0.43,3.60,-5.98,0.49,45.45,-20.51,-14.97,5
0.83,0.33,0.46,1.89,-2.26,2.93,44.95,-20.61,-14.84,5
0.82,0.33,0.42,3.48,-2.14,0.73,45.37,-20.59,-14.67,5
0.83,0.32,0.43,3.97,-1.59,0.79,45.34,-20.72,-14.29,5
0.83,0.33,0.44,3.30,-5.00,2.14,45.37,-20.47,-14.95,5
0.82,0.34,0.44,1.04,-0.67,0.73,45.90,-20.26,-14.38,5
0.83,0.32,0.43,-1.28,-0.12,-1.04,45.39,-20.51,-14.36,5
0.83,0.34,0.45,-7.02,1.34,0.98,45.45,-20.28,-13.95,5
0.81,0.34,0.39,-6.47,10.19,-3.17,45.50,-19.85,-14.45,5
0.85,0.35,0.44,-8.36,11.72,-3.91,45.81,-19.97,-14.17,5
0.86,0.33,0.37,-8.54,26.67,-3.30,45.74,-19.67,-12.12,5
0.89,0.28,0.31,-19.10,42.42,-0.98,45.12,-19.57,-10.95,5
0.90,0.39,0.35,-19.53,36.07,8.73,45.26,-18.86,-10.45,5
0.91,0.41,0.26,-37.66,61.71,12.39,44.81,-19.62,-8.11,5
0.84,0.40,0.19,-27.47,48.03,17.94,43.99,-19.30,-5.81,5
0.90,0.40,0.05,-29.48,45.17,12.88,43.98,-19.76,-4.05,5
0.91,0.40,0.04,-12.27,32.10,19.53,43.33,-19.71,-3.06,5
0.83,0.48,-0.06,-12.82,35.89,22.58,42.71,-20.23,-2.23,5
0.88,0.45,-0.04,-1.89,24.72,11.72,41.71,-20.36,-2.53,5
0.85,0.44,-0.06,-3.85,20.08,9.64,41.82,-20.75,-1.33,5
0.88,0.43,-0.10,7.81,11.72,13.24,41.47,-20.17,-1.20,5
0.84,0.49,-0.08,3.54,9.83,12.76,40.98,-20.69,-1.26,5
0.84,0.50,-0.09,5.62,-3.11,7.02,41.14,-21.01,-0.31,5
0.86,0.50,-0.05,4.03,-3.85,2.87,40.93,-21.08,-0.78,5
0.84,0.49,-0.08,7.32,-5.74,0.49,40.53,-20.46,-0.10,5
0.86,0.48,-0.06,4.39,-1.46,1.22,41.05,-20.87,0.46,5
0.86,0.48,-0.06,5.80,-5.55,1.16,41.19,-20.94,-0.13,5
0.85,0.49,-0.05,5.80,-3.30,2.87,41.37,-20.85,-0.82,5
0.87,0.48,-0.06,5.68,-4.27,0.24,41.11,-20.98,-1.99,5
0.85,0.48,-0.07,1.83,-2.26,4.21,41.30,-20.87,-0.77,5
0.86,0.50,-0.06,6.84,-2.75,2.08,40.93,-21.31,-1.32,5
0.86,0.47,-0.05,7.39,-1.40,-0.12,41.35,-20.64,-1.33,5
0.85,0.49,-0.06,6.53,-2.20,1.53,40.98,-20.73,-0.43,5
0.86,0.50,-0.06,4.64,1.83,-1.40,41.15,-20.69,-1.14,5
0.84,0.47,-0.04,7.26,-2.50,-1.59,40.66,-20.62,-0.93,5
0.87,0.49,-0.05,6.65,1.10,-3.60,41.05,-20.73,-0.07,5
0.84,0.53,0.01,11.96,0.18,-13.06,40.69,-20.23,-0.74,5
0.87,0.45,-0.03,17.21,15.87,-26.18,40.76,-20.03,-0.16,5
0.88,0.42,-0.06,21.61,28.56,-39.55,41.14,-19.67,0.13,5
0.90,0.33,-0.17,26.37,49.56,-49.74,41.04,-19.40,1.26,5
0.90,0.40,-0.11,25.15,47.61,-45.04,40.63,-17.93,1.57,5
0.93,0.24,-0.22,20.45,38.39,-35.22,40.52,-17.70,2.37,5
0.90,0.27,-0.21,19.04,39.06,-24.23,39.64,-17.04,3.81,5
0.91,0.23,-0.29,25.76,48.34,-26.79,38.76,-17.59,3.19,5
0.91,0.25,-0.34,10.19,53.04,-20.26,37.67,-16.97,5.82,5
0.89,0.22,-0.36,-8.48,53.96,-26.12,37.54,-15.92,6.91,5
0.88,0.15,-0.47,-11.11,47.97,-27.89,36.06,-14.65,7.68,5
0.86,0.13,-0.54,-5.19,39.49,-13.06,35.89,-14.58,8.46,5
0.96,0.24,-0.51,-3.42,22.89,-8.42,34.97,-14.11,9.62,5
0.83,0.15,-0.55,1.65,21.30,-3.78,34.85,-13.35,9.64,5
0.82,0.11,-0.51,5.19,4.82,-2.62,33.83,-13.89,9.25,5
0.81,0.12,-0.55,7.57,-0.55,-3.91,33.92,-13.82,8.74,5
0.85,0.12,-0.57,5.62,-2.32,-4.76,34.02,-13.44,10.34,5
0.82,0.08,-0.54,6.53,0.00,-5.55,34.07,-13.93,10.08,5
0.84,0.12,-0.54,6.10,-1.89,-3.97,34.05,-13.46,9.88,5
0.81,0.13,-0.50,2.69,-8.30,-1.10,33.95,-13.77,9.27,5
0.85,0.08,-0.55,1.65,-7.39,-5.62,34.07,-13.22,9.84,5
0.83,0.11,-0.53,1.40,-9.70,-4.82,34.46,-13.66,9.95,5
0.85,0.08,-0.52,4.15,-1.89,-4.64,34.24,-13.68,9.36,5
0.84,0.07,-0.52,-0.12,-8.36,-4.64,35.02,-13.04,9.95,5
0.85,0.07,-0.52,-0.85,-5.62,-5.19,34.95,-11.84,9.96,5
0.84,0.06,-0.52,1.65,-15.50,-8.42,35.17,-12.33,9.67,5
0.86,0.07,-0.53,2.87,-8.12,-14.34,35.35,-12.61,9.19,5
0.85,0.02,-0.50,-4.58,-17.46,-11.96,35.42,-11.49,8.92,5
0.83,0.02,-0.49,-8.30,-31.07,-17.27,35.56,-11.54,8.78,5
0.89,-0.04,-0.45,0.24,-18.49,-24.84,36.47,-11.08,8.54,5
0.89,-0.02,-0.45,4.64,-3.97,-8.30,37.05,-10.50,8.31,5
0.89,-0.01,-0.48,3.17,-18.74,-17.33,36.94,-9.84,8.12,5
0.89,-0.07,-0.40,12.88,-30.64,-29.85,37.71,-9.73,6.79,5
0.89,-0.07,-0.39,12.15,-42.60,-49.07,38.49,-9.53,6.80,5
0.90,-0.15,-0.35,17.09,-23.56,-46.45,38.72,-8.08,5.90,5
0.91,-0.20,-0.34,15.01,-25.70,-58.04,39.38,-7.13,5.51,5
0.91,-0.28,-0.34,1.10,-10.25,-51.03,39.34,-6.26,5.82,5
0.87,-0.36,-0.33,13.18,-17.40,-57.07,39.29,-5.52,5.14,5
0.88,-0.30,-0.28,11.47,-6.90,-53.53,39.12,-4.42,5.68,5
0.87,-0.46,-0.36,11.11,-0.98,-48.34,38.94,-3.66,5.51,5
0.84,-0.45,-0.32,13.55,3.17,-38.70,38.11,-2.91,5.52,5
0.84,-0.53,-0.38,11.72,-2.32,-20.14,37.87,-2.73,5.47,5
0.82,-0.45,-0.32,7.20,-7.39,-10.25,37.37,-2.10,6.12,5
0.81,-0.50,-0.33,6.84,-9.46,-13.98,38.09,-2.23,6.45,5
0.81,-0.48,-0.32,6.84,-18.31,-16.11,37.93,-1.89,6.48,5
0.80,-0.53,-0.31,7.69,-4.21,-11.66,38.22,-0.68,5.79,5
0.81,-0.51,-0.35,9.16,6.29,-4.09,37.48,-1.14,5.73,5
0.80,-0.53,-0.35,4.21,-6.41,-2.50,38.02,-1.35,5.27,5
0.80,-0.49,-0.32,4.46,-2.26,1.89,37.23,-1.67,5.80,5
0.79,-0.52,-0.32,4.03,-4.46,-0.79,37.70,-0.74,5.48,5
0.79,-0.50,-0.34,2.56,-3.36,-0.06,37.22,-1.01,5.69,5
0.80,-0.52,-0.31,1.04,-17.40,1.77,38.02,-1.18,5.82,5
0.80,-0.49,-0.30,0.98,-9.70,-2.93,38.16,-0.46,5.97,5
0.82,-0.53,-0.39,-10.93,-30.82,-3.60,38.39,-0.50,4.72,5
0.82,-0.59,-0.23,-24.72,-37.60,3.11,39.09,0.54,3.80,5
0.83,-0.55,-0.20,-23.80,-32.65,8.12,39.36,0.98,2.62,5
0.80,-0.57,-0.08,-11.05,-43.95,-2.62,40.34,1.07,1.97,5
0.85,-0.57,-0.13,-16.17,-54.50,2.69,41.00,0.74,0.51,5
0.82,-0.57,-0.05,-3.60,-59.08,5.62,41.75,1.20,-1.34,5
0.82,-0.52,0.03,-16.05,-63.42,15.26,42.93,0.79,-3.47,5
0.90,-0.62,0.07,-20.87,-61.16,-2.69,43.55,1.44,-4.99,5
0.81,-0.51,0.16,-40.04,-85.21,26.31,43.84,1.53,-7.71,5
0.80,-0.44,0.24,-49.32,-74.52,17.88,44.91,1.11,-10.00,5
0.78,-0.42,0.40,-38.51,-74.04,-2.69,45.34,1.17,-11.30,5
0.73,-0.50,0.25,-21.73,-79.16,2.75,45.46,1.21,-14.73,5
0.76,-0.34,0.67,-17.40,-82.21,-2.26,45.45,0.65,-16.16,5
0.68,-0.42,0.57,-1.59,-62.68,-16.42,44.98,1.37,-17.91,5
0.71,-0.44,0.71,10.50,-43.03,-13.85,43.66,1.82,-19.06,5
0.66,-0.46,0.60,15.32,-9.09,-10.19,44.31,2.10,-20.12,5
0.66,-0.47,0.61,7.39,-6.47,-0.49,43.71,2.15,-19.60,5
0.65,-0.47,0.61,14.22,-3.91,-8.91,43.57,2.65,-19.74,5
0.64,-0.50,0.62,15.14,-3.97,-12.88,43.55,3.19,-19.08,5
0.65,-0.53,0.59,21.73,7.45,-12.08,43.23,3.34,-19.31,5
0.63,-0.50,0.55,17.15,-1.46,-15.56,43.41,4.48,-19.13,5
0.65,-0.57,0.57,6.29,2.20,-3.60,42.93,4.70,-18.80,5
0.64,-0.55,0.52,9.52,9.28,0.92,43.08,4.48,-18.98,5
0.64,-0.53,0.55,-1.10,6.77,3.54,43.37,4.48,-19.65,5
0.67,-0.55,0.56,-8.48,5.37,9.34,43.44,4.48,-18.10,5
0.62,-0.51,0.59,-18.92,16.05,15.69,44.03,3.71,-19.31,5
0.69,-0.53,0.56,-25.09,30.21,37.84,44.15,2.87,-17.63,5
0.73,-0.45,0.49,-21.24,37.84,67.57,44.97,1.72,-17.83,5
0.80,-0.31,0.43,-12.15,28.44,57.31,45.47,0.22,-16.61,5
0.80,-0.41,0.56,0.12,40.47,69.70,46.39,-1.84,-16.04,5
0.82,-0.26,0.40,3.72,59.75,110.84,46.58,-4.31,-14.49,5
0.89,-0.15,0.40,0.98,24.23,85.88,47.25,-8.04,-12.57,5
0.89,-0.08,0.32,1.16,11.47,85.14,47.13,-9.51,-11.78,5
0.89,0.04,0.37,-7.20,-7.63,37.11,46.68,-11.17,-12.85,5
0.87,-0.03,0.35,-8.42,-20.14,60.00,47.38,-12.63,-12.84,5
0.94,0.02,0.44,-12.63,-31.31,34.91,47.55,-13.98,-15.05,5
0.88,0.13,0.43,-4.58,-31.98,37.17,47.16,-14.69,-13.64,5
0.84,0.11,0.47,7.45,-51.70,3.48,46.77,-14.61,-15.92,5
0.82,0.12,0.63,11.96,-64.09,9.22,46.09,-15.08,-17.27,5
0.81,0.14,0.63,17.58,-31.19,1.10,46.61,-14.27,-18.27,5
0.82,0.11,0.64,8.79,-25.45,-3.85,46.55,-14.62,-17.40,5
0.77,0.09,0.59,9.40,-8.91,-2.75,46.42,-15.11,-18.85,5
0.77,0.10,0.60,11.84,-10.80,-4.21,45.96,-14.67,-19.97,5
0.79,0.06,0.61,9.70,-4.58,-2.81,45.59,-14.05,-20.52,5
0.78,0.07,0.65,6.77,-11.60,-2.26,46.17,-14.43,-20.06,5
0.77,0.06,0.62,8.73,-1.83,-1.53,46.50,-14.15,-20.84,5
0.77,0.08,0.61,6.10,-3.17,0.06,46.41,-13.94,-19.81,5
0.78,0.06,0.62,3.66,-3.17,0.73,46.23,-14.00,-19.58,5
0.77,0.07,0.63,4.03,-5.43,0.24,46.01,-14.33,-19.64,5
0.77,0.05,0.60,5.43,-3.17,2.01,46.44,-13.78,-19.96,5
0.75,0.08,0.64,4.33,-4.58,2.56,46.15,-14.51,-19.57,5
0.76,0.07,0.63,5.74,-3.30,0.79,46.19,-14.38,-19.07,5
0.77,0.09,0.62,6.04,0.06,0.98,46.18,-13.49,-20.40,5
0.78,0.06,0.62,2.81,-0.37,1.28,46.46,-14.00,-19.98,5
0.77,0.09,0.65,4.46,2.62,-0.92,46.33,-13.85,-20.04,5
0.73,0.05,0.57,3.54,18.07,-10.01,46.46,-13.82,-19.04,5
0.81,0.02,0.61,15.38,20.81,-10.44,46.11,-13.65,-19.41,5
0.82,-0.00,0.56,19.53,52.92,-16.66,46.50,-12.79,-17.49,5
0.85,0.01,0.60,16.72,59.33,-2.08,47.41,-12.81,-16.30,5
0.87,0.00,0.44,0.18,74.65,-0.55,47.27,-12.54,-13.81,5
0.81,0.08,0.23,6.77,98.51,4.94,47.51,-12.22,-11.78,5
0.94,0.00,0.23,3.36,87.89,-16.24,47.33,-11.85,-8.53,5
0.94,-0.06,0.14,20.26,75.93,-11.96,46.56,-11.21,-7.75,5
0.96,-0.02,0.07,4.03,71.90,6.23,45.57,-11.56,-5.08,5
0.98,-0.08,0.04,29.05,74.83,-8.18,45.36,-11.21,-2.66,5
0.97,-0.04,0.09,55.18,75.93,24.72,44.15,-11.25,-0.89,5
0.91,0.03,-0.18,104.49,118.23,44.07,43.14,-14.50,1.98,5
0.96,0.15,-0.34,27.28,72.63,25.09,41.35,-15.97,2.76,5
0.90,0.07,-0.42,-30.76,89.11,5.13,39.15,-15.33,4.79,5
0.89,0.03,-0.35,-57.43,71.66,-18.68,37.77,-13.65,7.91,5
0.89,-0.01,-0.45,-40.22,76.60,-18.25,36.17,-12.52,9.73,5
0.82,-0.10,-0.62,-39.31,31.43,-11.41,34.57,-10.45,9.31,5
0.80,-0.09,-0.57,-27.16,30.21,-8.97,33.51,-8.59,10.56,5
0.82,-0.13,-0.54,-6.59,24.72,-7.08,33.03,-9.06,10.44,5
0.77,-0.12,-0.63,-5.62,21.12,4.27,32.81,-8.70,11.69,5
0.78,-0.13,-0.66,2.69,17.76,2.62,32.04,-8.48,10.74,5
0.77,-0.13,-0.61,6.35,7.51,4.27,32.02,-8.79,12.23,5
0.76,-0.12,-0.64,8.85,7.51,2.50,31.84,-8.62,11.62,5
0.77,-0.12,-0.63,6.96,7.51,7.63,31.73,-9.12,10.90,5
0.75,-0.08,-0.64,-1.28,11.96,9.40,30.59,-8.76,11.55,5
0.77,-0.14,-0.68,7.57,-0.06,8.73,30.77,-9.18,11.22,5
0.74,-0.10,-0.67,5.25,2.93,6.53,31.20,-9.42,10.78,5
0.74,-0.10,-0.69,6.71,-6.23,6.77,30.30,-9.58,12.43,5
0.75,-0.09,-0.68,3.30,-8.24,2.75,31.29,-9.23,11.84,5
0.75,-0.09,-0.66,7.81,-17.46,4.82,31.13,-9.52,11.67,5
0.78,-0.08,-0.65,5.49,-17.21,4.27,31.74,-9.39,12.00,5
0.75,-0.08,-0.76,14.89,-38.39,10.01,32.48,-9.83,11.12,5
0.76,-0.05,-0.59,9.52,-42.72,3.72,33.68,-10.21,10.85,5
0.81,-0.10,-0.60,-15.08,-78.12,11.35,34.33,-9.77,9.45,5
0.87,-0.11,-0.58,4.82,-71.47,8.24,35.94,-10.42,8.23,5
0.87,0.04,-0.36,-43.70,-130.25,31.01,38.23,-10.14,6.07,5
0.97,-0.09,-0.35,-24.11,-58.84,10.19,40.86,-9.58,4.33,5
0.94,0.02,-0.09,-1.59,-81.18,21.00,42.42,-9.99,2.53,5
1.00,-0.06,-0.20,4.70,-53.77,7.02,42.83,-10.73,1.66,5
0.99,0.03,-0.03,28.50,-57.62,16.78,43.73,-11.27,-0.22,5
0.92,0.08,-0.03,35.03,-38.70,-12.27,44.12,-11.32,-0.90,5
1.10,-0.08,0.04,51.15,-34.48,-13.67,44.31,-11.73,-0.76,5
0.96,-0.02,-0.08,94.06,-7.45,-2.50,44.68,-12.52,-1.48,5
0.99,0.01,-0.01,46.51,-13.43,6.90,44.82,-13.56,-2.33,5
1.03,-0.00,0.02,21.00,0.73,-2.56,44.74,-13.81,-3.20,5
0.95,0.02,-0.12,-59.39,14.28,0.43,45.56,-13.23,-2.78,5
1.05,-0.03,-0.06,-13.12,-12.39,12.08,44.97,-12.79,-2.00,5
0.98,0.05,0.08,-22.83,-16.78,9.64,44.91,-12.39,-1.86,5
1.01,-0.04,-0.03,-8.67,-20.14,2.62,44.87,-12.67,-3.77,5
0.99,0.03,0.09,7.51,-23.01,6.65,45.58,-12.34,-2.73,5
1.03,0.00,0.01,8.12,-6.29,-0.55,45.51,-12.18,-3.42,5
0.99,0.00,0.11,11.66,-6.71,3.23,45.39,-12.18,-4.60,5
0.98,-0.02,0.03,12.70,5.74,-2.20,45.29,-12.73,-3.60,5
0.99,-0.00,0.03,7.45,1.04,0.18,45.28,-12.77,-2.91,5
0.99,-0.02,0.03,8.18,3.54,-0.61,45.02,-12.63,-3.05,5
1.00,-0.02,-0.00,5.00,-0.49,2.32,45.56,-12.56,-1.86,5
0.98,0.01,0.05,6.10,-1.77,1.89,45.03,-12.56,-2.56,5
1.00,-0.03,0.00,6.77,3.11,-0.06,45.20,-12.13,-2.86,5
0.99,0.01,0.03,5.49,-4.21,3.42,45.14,-12.15,-3.26,5
0.99,-0.01,0.03,4.58,3.11,-0.61,44.40,-12.50,-2.27,5
0.99,-0.01,0.01,3.17,-3.60,1.10,45.52,-12.66,-2.62,5
1.00,-0.02,-0.01,5.31,1.59,-0.67,45.29,-12.19,-3.06,5
0.99,-0.00,0.01,5.68,-5.43,3.17,45.80,-12.89,-2.62,5
0.99,-0.02,0.03,2.62,2.32,-2.50,45.40,-12.35,-3.36,5
0.99,-0.02,0.02,3.54,-3.72,1.89,45.03,-11.99,-2.50,5
0.99,-0.02,0.01,2.75,-1.59,0.31,45.67,-11.41,-1.61,5
0.99,-0.03,0.01,3.66,-5.37,2.44,45.18,-12.82,-2.29,5
0.98,-0.00,0.05,3.66,-3.66,2.32,45.04,-13.11,-2.37,5
0.99,-0.04,0.00,2.32,-2.93,0.37,45.15,-12.18,-2.81,5
0.99,-0.01,0.03,4.15,-4.94,2.50,45.39,-12.48,-2.20,5
0.99,-0.02,0.02,4.21,-2.93,0.37,45.51,-12.34,-3.00,5
0.98,-0.01,0.04,2.62,-1.34,0.18,44.65,-12.67,-2.19,5
0.99,-0.03,0.01,5.25,-4.27,1.46,44.56,-11.98,-3.49,5
0.99,-0.00,0.05,3.17,-3.78,1.46,44.84,-12.22,-2.19,5
0.99,-0.02,0.01,3.05,-2.62,1.40,45.34,-12.07,-2.49,5
0.99,-0.02,0.04,3.97,-3.72,0.55,45.32,-12.18,-2.54,5
0.99,-0.03,0.01,3.66,-2.38,0.79,44.98,-12.43,-3.33,5
0.99,-0.03,0.02,2.87,-1.22,-0.55,45.02,-12.59,-2.42,5
0.99,-0.03,0.02,5.07,-1.16,1.40,45.03,-12.11,-2.05,5
0.99,-0.02,0.01,4.64,-1.71,1.10,45.31,-12.01,-2.10,5
0.99,-0.03,0.02,4.27,-2.44,1.04,45.25,-12.35,-3.43,5
0.99,-0.01,0.04,3.91,-3.72,2.08,44.98,-12.60,-3.41,5
1.00,-0.03,0.00,3.30,-3.11,1.22,45.25,-12.37,-3.15,5
0.99,-0.02,0.02,2.08,-3.66,1.34,45.32,-12.15,-3.32,5
0.99,-0.03,0.03,3.48,-3.85,1.28,45.43,-12.44,-2.28,5
0.99,-0.02,0.03,3.78,-1.22,0.31,45.52,-12.38,-3.52,5
0.99,-0.02,0.02,4.09,-3.23,1.10,45.43,-11.85,-2.60,5
0.99,-0.02,0.02,3.97,-2.81,1.65,45.43,-11.51,-3.55,5
0.99,-0.01,0.04,2.75,-3.66,0.67,45.68,-11.72,-3.22,5
0.99,-0.03,0.02,3.11,-1.46,-0.61,45.30,-11.87,-2.43,5
0.99,-0.02,0.02,3.72,-2.44,1.40,45.18,-11.72,-3.23,5
0.99,-0.02,0.03,3.42,-2.81,1.16,44.70,-11.36,-3.06,5
0.99,-0.03,0.02,3.72,-3.66,2.14,45.00,-11.79,-2.73,5
0.99,-0.02,0.03,3.78,-2.69,1.59,45.18,-12.39,-2.62,5
0.99,-0.02,0.03,2.87,-4.27,2.20,44.86,-11.89,-3.75,5
0.99,-0.02,0.05,2.93,-2.38,1.16,44.68,-11.85,-2.69,5
0.99,-0.02,0.02,3.30,-2.14,1.59,45.25,-11.62,-3.14,5
1.00,-0.03,0.02,3.54,-3.85,2.08,45.32,-12.12,-2.16,5
0.99,-0.01,0.02,3.17,-2.81,2.32,44.76,-11.06,-2.86,5
0.99,-0.05,0.00,3.11,-4.94,5.19,45.18,-11.77,-3.25,5
0.99,-0.01,0.03,1.71,-2.01,3.72,45.64,-11.27,-2.86,5
0.98,-0.00,0.04,3.48,-4.58,1.40,45.26,-11.76,-3.03,5
0.99,-0.02,0.03,3.97,-1.65,-0.43,45.43,-11.58,-3.03,5
0.99,-0.02,0.02,4.03,-2.69,0.67,45.13,-12.04,-3.05,5
0.99,-0.01,0.04,4.15,-1.46,-0.67,45.20,-11.95,-2.95,5
0.99,-0.03,0.01,4.09,-3.17,0.43,45.28,-11.98,-3.26,5
1.00,-0.01,0.04,3.72,-3.11,0.43,45.25,-11.65,-3.22,5
0.99,-0.02,0.03,2.44,-2.87,-0.06,45.25,-11.32,-4.35,5
0.99,-0.02,0.03,2.62,-3.91,0.55,45.35,-11.60,-2.10,5
0.99,-0.02,0.04,2.75,-0.73,0.49,44.95,-11.36,-2.01,5
1.01,-0.04,0.02,2.99,-2.20,0.49,45.41,-11.32,-2.99,5
0.98,0.01,0.05,0.98,-4.09,3.36,44.95,-11.47,-2.70,5
1.02,-0.03,0.04,-0.61,-5.86,-1.65,45.46,-11.17,-3.20,5
0.96,-0.04,0.00,7.87,-2.69,-2.44,45.31,-11.65,-3.08,5
0.98,-0.03,0.06,2.14,-13.06,-5.86,45.51,-11.10,-1.51,5
0.98,-0.08,0.20,0.67,-25.70,3.36,45.70,-10.74,-3.12,5
0.98,0.01,0.08,3.36,-11.96,7.93,46.12,-11.05,-3.33,5
0.99,-0.03,0.06,5.92,-4.70,2.26,46.17,-11.22,-3.54,5
0.97,-0.03,0.09,4.15,-8.79,6.10,46.29,-11.65,-4.53,5
0.99,-0.01,0.10,5.00,-5.49,3.78,46.44,-11.62,-4.25,5
1.00,-0.04,0.04,0.98,-9.22,5.55,45.86,-11.18,-3.89,5
1.05,0.12,0.10,-11.54,-23.50,14.28,45.70,-11.88,-3.69,5
0.98,0.02,0.03,-5.80,-25.88,4.70,46.30,-11.83,-5.58,5
0.98,-0.03,0.16,19.78,-26.25,-3.11,45.94,-11.83,-6.25,5
0.95,-0.05,0.15,-1.59,-23.74,-2.50,46.18,-11.61,-6.21,5
0.96,-0.03,0.22,0.24,-19.41,-0.73,46.80,-11.71,-7.64,5
0.97,-0.02,0.19,-4.88,-18.07,0.06,47.06,-11.78,-7.36,5
0.95,0.01,0.26,-0.79,-16.66,0.79,46.92,-11.49,-8.96,5
0.99,-0.04,0.23,3.72,-12.76,0.24,46.86,-11.38,-8.47,5
0.99,0.01,0.06,18.25,-27.22,10.19,47.67,-12.28,-9.38,5
0.96,-0.03,0.35,17.09,-30.40,1.10,47.38,-11.95,-10.60,5
0.91,-0.03,0.32,43.70,-43.52,2.38,47.44,-12.83,-10.56,5
0.94,-0.03,0.40,14.40,-36.62,8.00,47.22,-12.48,-10.80,5
0.90,0.00,0.42,14.89,-31.68,8.61,47.72,-12.67,-13.09,5
0.91,-0.00,0.46,25.02,-21.48,1.28,47.40,-13.34,-13.12,5
0.88,-0.05,0.35,-3.11,-11.11,2.38,47.91,-12.74,-13.95,5
0.89,-0.02,0.46,1.34,-16.66,5.55,47.63,-12.96,-14.92,5
0.87,0.03,0.45,0.49,-16.17,3.42,47.53,-13.48,-14.31,5
0.87,-0.01,0.46,-2.44,-18.43,5.25,46.94,-13.05,-15.37,5
0.86,0.00,0.49,-2.44,-18.01,4.27,47.18,-13.71,-15.81,5
0.85,0.02,0.56,-7.57,-42.60,7.14,47.11,-13.28,-16.25,5
0.87,0.01,0.55,-2.93,-19.47,4.52,47.05,-14.00,-16.32,5
0.84,0.03,0.51,7.20,-7.08,2.32,47.05,-14.15,-17.98,5
0.84,0.02,0.54,0.31,-15.93,4.76,47.03,-13.62,-16.48,5
0.83,0.03,0.54,5.31,-6.29,1.10,46.86,-14.04,-16.58,5
0.83,-0.02,0.51,7.93,-8.91,0.79,46.98,-13.82,-17.25,5
0.83,0.02,0.57,4.76,-7.75,3.36,46.61,-13.31,-17.61,5
0.80,0.04,0.53,2.56,-3.85,3.17,46.77,-13.77,-17.63,5
0.82,0.04,0.57,2.26,-6.84,3.11,46.57,-13.90,-17.47,5
0.82,0.03,0.56,2.14,-3.54,1.71,47.35,-13.71,-17.99,5
0.82,0.05,0.56,2.93,-3.78,1.83,46.97,-14.21,-18.23,5
0.81,0.03,0.56,1.89,-3.23,0.98,46.83,-13.66,-18.26,5
0.82,0.04,0.56,2.56,-4.27,1.46,46.39,-13.61,-17.81,5
0.82,0.04,0.56,4.09,-4.58,0.12,47.00,-13.87,-18.63,5
0.81,0.03,0.58,4.94,-5.55,-0.43,46.50,-13.72,-18.35,5
0.81,0.04,0.57,5.62,-3.85,0.73,47.35,-13.70,-18.54,5
0.81,0.03,0.56,4.46,-4.15,0.67,46.68,-13.68,-17.91,5
0.81,0.03,0.57,3.91,-4.39,1.77,47.14,-13.73,-17.82,5
0.81,0.04,0.57,4.33,-4.21,1.59,46.83,-13.84,-18.88,5
0.81,0.03,0.57,4.21,-3.30,1.83,46.89,-13.94,-18.59,5
0.81,0.04,0.57,4.58,-4.03,2.08,45.90,-12.85,-18.37,5
0.81,0.04,0.57,4.46,-3.05,1.28,46.53,-13.75,-18.62,5
0.81,0.03,0.57,4.09,-3.78,1.22,46.53,-13.96,-18.19,5
0.81,0.04,0.57,4.39,-3.48,1.46,46.51,-13.72,-18.59,5
0.81,0.04,0.58,4.76,-2.69,0.98,46.53,-13.46,-19.13,5
0.81,0.04,0.57,4.21,-3.48,1.46,46.37,-14.34,-18.12,5
0.81,0.04,0.57,2.81,-2.93,1.59,46.74,-13.81,-18.73,5
0.80,0.04,0.57,4.03,-2.62,0.67,46.52,-13.73,-19.03,5
0.81,0.03,0.57,5.19,-1.53,1.40,46.36,-13.85,-18.36,5
0.81,0.04,0.57,4.21,-2.62,0.85,46.44,-14.16,-18.24,5
0.81,0.03,0.57,3.97,-1.22,1.40,46.66,-13.55,-18.87,5
0.80,0.04,0.58,3.05,-0.18,-0.06,46.66,-13.68,-17.79,5
0.83,0.03,0.56,-0.18,5.43,0.73,47.33,-13.61,-18.46,5
0.81,0.04,0.56,-3.72,5.00,2.56,46.97,-14.14,-18.14,5
0.83,0.05,0.56,-4.03,10.74,1.83,47.31,-14.07,-17.74,5
0.83,0.03,0.54,0.92,18.37,4.52,46.94,-14.33,-17.30,5
0.83,0.06,0.54,5.07,12.88,5.49,46.97,-13.61,-16.50,5
0.86,0.06,0.53,-0.24,19.71,2.50,47.25,-14.29,-15.93,5
0.86,0.05,0.46,-10.01,22.09,-1.04,47.13,-13.99,-15.86,5
0.89,0.09,0.44,-17.15,28.32,-1.77,47.57,-14.17,-14.53,5
0.89,0.07,0.45,-2.01,21.61,-0.85,47.07,-13.72,-13.59,5
0.90,0.06,0.39,3.36,20.02,0.79,47.14,-13.45,-13.51,5
0.91,0.08,0.38,-1.65,20.26,6.41,47.34,-13.73,-12.43,5
0.89,0.06,0.38,10.56,13.73,-0.06,46.90,-13.87,-10.86,5
0.95,0.06,0.35,10.62,11.41,4.64,46.31,-13.46,-11.98,5
0.92,0.05,0.35,6.77,28.02,-5.86,46.97,-13.16,-11.78,5
0.94,0.04,0.32,10.86,20.08,1.40,46.98,-14.01,-10.13,5
0.93,0.03,0.34,14.83,11.05,0.49,47.13,-14.06,-9.99,5
0.96,0.05,0.23,10.07,40.28,-11.72,47.07,-14.05,-10.03,5
0.96,0.04,0.21,5.55,19.29,-2.44,46.78,-13.55,-8.37,5
1.02,0.05,0.26,7.75,31.49,-6.47,46.62,-13.53,-7.53,5
0.94,0.04,0.21,28.99,37.96,-3.17,45.83,-13.16,-6.74,5
1.03,-0.01,0.23,27.34,48.52,0.85,45.97,-12.95,-6.04,5
0.95,0.01,0.08,20.51,58.11,1.46,45.10,-13.48,-3.75,5
0.99,0.03,0.07,7.02,50.96,1.34,45.08,-13.77,-4.09,5
1.01,0.01,-0.04,1.28,75.32,-3.91,44.38,-13.55,-0.96,5
0.98,-0.02,-0.15,-13.18,68.91,-12.57,43.46,-13.43,-0.12,5
0.97,-0.02,-0.25,-7.87,53.77,-5.98,42.24,-12.43,2.17,5
0.98,-0.02,-0.21,-23.74,48.52,-6.29,41.80,-12.04,3.17,5
0.95,-0.08,-0.28,-26.06,41.81,-12.27,40.53,-11.34,3.63,5
0.94,-0.07,-0.33,-14.10,38.88,-5.80,39.97,-10.07,5.85,5
0.92,-0.11,-0.42,-5.25,28.81,-3.42,39.64,-10.24,5.76,5
0.90,-0.07,-0.32,3.42,6.84,3.23,39.00,-10.46,6.58,5
0.91,-0.08,-0.41,5.80,1.28,4.52,37.89,-10.44,7.24,5
0.92,-0.09,-0.40,2.26,4.33,-0.24,38.43,-10.10,6.26,5
0.91,-0.09,-0.42,3.78,2.26,0.79,38.16,-10.27,6.91,5
0.92,-0.09,-0.37,5.31,-4.52,3.23,38.65,-10.01,7.92,5
0.91,-0.09,-0.41,2.69,2.01,0.55,38.71,-9.77,6.85,5
0.90,-0.10,-0.40,6.71,-6.71,5.13,38.22,-9.63,6.67,5
0.92,-0.10,-0.38,-1.04,0.79,-0.92,38.64,-10.46,7.21,5
0.91,-0.11,-0.42,2.56,-5.43,2.01,38.50,-10.38,7.24,5
0.91,-0.08,-0.36,4.39,-8.91,5.13,38.99,-10.24,7.14,5
0.92,-0.07,-0.37,4.58,-9.28,2.69,39.14,-10.41,6.47,5
0.92,-0.10,-0.40,3.05,-15.20,6.59,38.98,-9.96,5.91,5
0.94,-0.06,-0.36,-0.85,-23.19,6.71,39.53,-10.30,6.62,5
0.94,-0.04,-0.34,-10.74,-30.64,-0.92,39.56,-10.49,5.30,5
0.93,-0.08,-0.31,-14.71,-26.55,-7.93,40.56,-9.27,6.09,5
0.95,-0.12,-0.35,-8.61,-18.68,-6.10,40.37,-9.11,4.77,5
0.94,-0.12,-0.22,-5.55,-43.82,-27.53,41.22,-8.59,3.71,5
0.95,-0.15,-0.26,8.67,-16.48,-17.94,41.30,-7.95,4.35,5
0.93,-0.21,-0.15,2.69,-41.75,-50.84,41.66,-7.15,2.87,5
0.99,-0.23,-0.25,15.81,-12.82,-35.89,42.61,-6.54,1.87,5
0.94,-0.16,-0.16,14.47,-21.85,-49.50,42.36,-5.47,2.38,5
0.91,-0.41,-0.13,18.86,-13.00,-51.51,41.92,-5.18,2.38,5
0.95,-0.33,-0.13,23.07,-8.79,-36.87,41.93,-4.44,2.69,5
0.91,-0.38,-0.18,5.86,-6.41,-38.70,41.99,-3.53,2.27,5
0.89,-0.45,-0.16,12.21,-3.11,-35.83,41.42,-2.38,1.17,5
0.87,-0.40,-0.18,8.12,-3.23,-29.85,41.26,-1.77,2.12,5
0.87,-0.52,-0.17,6.71,1.71,-28.44,40.59,-1.44,1.23,5
0.85,-0.44,-0.16,1.71,-11.60,-25.76,40.54,-1.31,2.71,5
0.84,-0.55,-0.16,12.82,-0.37,-22.95,40.11,-0.15,0.60,5
0.82,-0.50,-0.15,5.31,-6.77,-6.77,40.00,0.16,1.88,5
0.83,-0.53,-0.16,4.03,-3.42,-10.86,40.23,0.90,1.54,5
0.81,-0.57,-0.16,-3.60,-10.38,-20.08,40.06,1.93,1.73,5
0.82,-0.58,-0.16,8.54,-3.66,-6.65,39.59,2.25,0.37,5
0.79,-0.56,-0.16,3.72,-0.67,-11.54,39.84,1.90,3.08,5
0.81,-0.63,-0.17,8.73,-1.71,-7.93,39.29,2.37,2.38,5
0.79,-0.59,-0.16,1.95,-4.27,-4.88,39.33,2.00,2.70,5
0.80,-0.60,-0.15,8.00,-1.59,-4.46,39.23,2.66,2.50,5
0.78,-0.58,-0.15,3.78,-2.81,-0.98,39.90,2.45,1.79,5
0.78,-0.60,-0.15,8.24,-2.81,-2.26,38.95,2.55,1.14,5
0.78,-0.62,-0.18,3.72,-2.87,-1.83,39.67,2.34,1.31,5
0.78,-0.58,-0.14,4.64,-3.23,0.79,39.54,2.50,1.56,5
0.77,-0.62,-0.18,4.27,-2.75,-0.73,39.42,2.64,1.70,5
0.78,-0.59,-0.15,5.07,-4.39,2.81,39.27,2.39,1.51,5
0.78,-0.60,-0.17,4.15,-1.71,0.67,39.07,3.08,1.79,5
0.78,-0.62,-0.17,4.21,-4.15,2.20,39.17,2.88,1.72,5
0.78,-0.60,-0.16,4.46,-1.95,0.98,39.40,2.50,1.82,5
0.78,-0.61,-0.17,5.62,-2.93,2.26,39.21,3.02,2.65,5
0.78,-0.61,-0.18,6.53,-1.77,0.49,39.26,2.71,1.94,5
0.78,-0.60,-0.17,5.98,-2.50,0.37,39.32,2.49,1.92,5
0.78,-0.58,-0.14,3.97,-3.85,1.89,39.14,2.31,2.88,5
0.78,-0.60,-0.17,5.80,-3.30,0.31,39.47,2.86,2.51,5
0.78,-0.61,-0.17,5.00,-2.50,1.22,39.61,2.56,1.49,5
0.78,-0.59,-0.15,6.04,-2.93,1.10,38.82,1.68,2.51,5
0.78,-0.60,-0.18,6.96,-2.08,0.37,39.33,1.89,2.20,5
0.78,-0.60,-0.17,5.74,-2.20,0.67,39.03,2.37,4.05,5
0.78,-0.61,-0.17,3.48,-2.32,0.37,39.92,2.26,1.20,5
0.78,-0.60,-0.16,4.82,-3.23,1.22,39.16,2.33,2.39,5
0.78,-0.61,-0.16,4.94,-2.93,1.46,39.64,2.58,1.17,5
0.78,-0.61,-0.18,4.46,-1.83,1.71,39.38,2.93,1.34,5
0.78,-0.59,-0.16,3.05,-4.15,4.39,39.25,2.27,2.43,5
0.78,-0.62,-0.17,6.41,-3.85,7.93,39.27,2.08,2.58,5
0.79,-0.56,-0.16,6.16,-4.64,12.63,39.99,2.08,1.10,5
0.80,-0.60,-0.17,2.99,-5.80,9.52,39.82,1.73,1.00,5
0.81,-0.59,-0.18,2.99,-9.03,20.57,40.12,1.68,1.89,5
0.80,-0.61,-0.17,-6.71,-11.78,22.52,40.48,1.14,1.82,5
0.82,-0.58,-0.14,0.43,-8.67,21.67,40.56,0.98,1.26,5
0.85,-0.48,-0.17,1.34,-5.31,32.78,40.76,-0.45,1.20,5
0.85,-0.49,-0.15,-0.79,2.50,31.86,41.15,-1.29,1.54,5
0.89,-0.47,-0.10,-5.13,1.34,42.79,41.75,-1.48,1.15,5
0.87,-0.46,-0.15,-6.65,-1.71,44.74,42.14,-2.11,1.10,5
0.92,-0.44,-0.12,-6.16,-3.54,61.89,42.30,-3.37,0.90,5
0.93,-0.36,-0.12,-8.73,-13.18,53.22,42.60,-4.43,0.92,5
0.94,-0.33,-0.11,-7.81,-13.55,48.16,43.02,-5.38,-0.26,5
1.01,-0.28,-0.07,17.76,1.71,58.84,43.32,-6.92,1.44,5
0.97,-0.15,-0.13,6.59,-4.88,54.57,43.46,-8.83,0.49,5
0.99,-0.17,-0.06,-1.89,-4.27,55.73,43.69,-9.91,-0.20,5
1.01,-0.09,-0.08,-0.37,10.93,71.29,43.90,-10.77,0.38,5
0.93,0.01,-0.07,-4.39,0.12,73.12,43.36,-12.39,0.94,5
0.99,0.12,-0.11,-13.55,14.10,64.03,43.20,-13.99,0.78,5
0.93,0.12,-0.17,-5.98,2.44,56.82,42.81,-15.15,1.18,5
0.96,0.13,-0.10,-7.75,-5.74,53.96,42.48,-15.94,-0.27,5
0.93,0.23,-0.15,5.49,-10.50,47.36,42.37,-17.57,0.61,5
0.93,0.30,-0.11,0.67,-2.87,50.48,42.22,-18.42,-0.17,5
0.95,0.35,-0.08,9.40,-14.95,46.14,41.80,-19.62,0.09,5
0.90,0.33,-0.12,4.27,-5.68,46.08,41.41,-20.02,0.15,5
0.88,0.45,-0.06,10.99,-18.98,53.83,41.00,-21.72,-0.59,5
0.88,0.49,-0.06,6.16,0.43,26.67,40.50,-22.50,-0.33,5
0.84,0.40,-0.16,3.05,-7.20,24.05,40.50,-22.68,-0.93,5
0.86,0.47,-0.06,0.12,-9.03,28.20,40.11,-23.43,-0.82,5
0.84,0.44,-0.11,-0.37,-3.17,21.24,39.88,-23.51,-1.45,5
0.86,0.52,-0.06,2.93,-6.35,28.14,39.37,-23.50,-0.49,5
0.80,0.53,-0.06,6.47,0.06,16.85,39.05,-23.88,0.33,5
0.87,0.55,-0.05,3.72,-5.37,20.20,39.34,-25.05,0.51,5
0.81,0.59,-0.05,6.23,-3.91,14.77,39.34,-25.12,0.28,5
0.81,0.57,-0.07,3.48,-1.77,4.88,39.48,-25.28,0.12,5
0.79,0.59,-0.07,-0.55,4.64,9.28,39.17,-25.54,-0.90,5
0.79,0.57,-0.13,2.87,2.62,1.77,38.90,-25.23,0.20,5
0.81,0.57,-0.08,9.46,-5.49,3.91,38.76,-25.96,-0.98,5
0.82,0.59,-0.05,9.70,-5.25,-0.06,38.87,-25.11,-0.35,5
0.81,0.56,-0.07,4.76,-8.12,2.50,39.17,-25.67,-0.06,5
0.80,0.55,-0.06,6.90,-5.55,-2.01,38.66,-25.88,-1.59,5
0.81,0.56,-0.06,6.29,-6.16,-0.18,38.46,-25.40,-0.89,5
0.81,0.57,-0.07,6.90,-5.19,-0.18,38.96,-25.26,-1.05,5
0.81,0.55,-0.05,6.77,-5.92,-1.65,39.00,-25.70,-1.50,5
0.82,0.57,-0.06,2.87,-2.93,2.50,38.79,-25.56,-0.31,5
0.80,0.55,-0.04,6.23,-4.46,0.12,38.77,-25.22,-1.68,5
0.82,0.56,-0.03,5.55,-1.95,-1.65,38.31,-25.82,-1.51,5
0.81,0.56,-0.03,4.70,-4.70,0.49,39.07,-25.33,-2.55,5
0.80,0.56,-0.06,5.92,-4.15,-1.40,39.31,-25.50,-1.94,5
0.82,0.56,-0.05,9.03,-4.15,-3.72,39.28,-25.72,-1.66,5
0.82,0.56,-0.04,5.55,-1.28,-4.82,38.89,-25.05,-0.99,5
0.82,0.54,-0.04,0.61,-1.95,-2.56,39.33,-24.87,-0.96,5
0.82,0.52,-0.03,8.42,-4.39,-4.03,39.97,-24.63,-1.42,5
0.82,0.55,-0.05,6.29,-4.94,2.62,39.67,-25.11,-1.21,5
0.83,0.55,-0.02,8.97,-7.08,-1.89,39.43,-25.16,-2.23,5
0.84,0.53,-0.05,6.41,-2.62,-2.20,39.55,-24.74,-1.29,5
0.84,0.58,0.01,2.87,-4.88,-1.34,39.47,-25.06,-1.54,5
0.82,0.51,-0.03,2.81,-7.20,-3.78,39.94,-24.79,-2.26,5
0.84,0.54,-0.04,10.62,-6.96,-5.19,40.06,-24.79,-1.56,5
0.85,0.51,-0.02,11.72,-13.79,-17.82,40.28,-24.39,-0.72,5
0.85,0.53,-0.03,20.75,-17.09,-19.53,40.58,-24.05,-2.48,5
0.88,0.46,0.02,39.37,-34.48,-41.02,41.76,-24.16,-3.30,5
0.90,0.52,-0.03,47.49,-45.65,-64.21,42.37,-23.34,-4.21,5
0.90,0.29,0.13,48.40,-46.63,-92.16,44.45,-21.61,-6.68,5
0.92,0.32,0.20,17.40,-44.98,-55.54,45.23,-20.01,-8.96,5
0.93,0.10,0.30,-1.34,-48.10,-52.55,46.08,-18.84,-7.04,5
0.94,0.18,0.29,0.31,-26.31,-16.60,46.55,-17.91,-9.97,5
0.94,0.18,0.23,0.06,-27.89,-18.98,46.56,-17.52,-9.28,5
0.94,0.17,0.44,6.23,-20.69,-15.75,46.92,-17.29,-10.79,5
0.88,0.04,0.22,31.25,-25.15,-23.68,47.16,-16.75,-10.35,5
0.93,0.08,0.38,17.58,-37.48,-13.92,47.24,-15.81,-10.68,5
0.93,0.12,0.30,18.98,-33.33,-23.19,47.00,-15.65,-12.10,5
0.90,-0.01,0.40,21.97,-32.96,-20.08,46.96,-14.56,-13.35,5
0.87,0.00,0.42,7.87,-57.80,-11.54,47.58,-14.48,-13.43,5
0.86,0.01,0.50,-7.51,-49.13,-16.36,46.90,-13.85,-16.14,5
0.82,-0.03,0.60,-11.47,-46.88,-17.82,47.42,-13.24,-17.27,5
0.82,0.04,0.48,-17.03,-23.80,3.11,47.96,-13.33,-17.65,5
0.83,0.02,0.55,6.41,-34.91,-2.50,46.80,-13.12,-18.33,5
0.81,0.00,0.64,1.95,-35.58,-3.54,46.64,-13.83,-18.84,5
0.76,0.01,0.62,1.34,-21.36,2.26,47.05,-13.59,-19.02,5
0.80,0.02,0.70,1.71,-15.38,1.53,46.44,-14.11,-20.69,5
0.76,0.01,0.60,3.30,-7.81,0.85,46.31,-13.04,-20.64,5
0.77,0.01,0.64,4.70,-7.51,-0.12,46.56,-13.40,-20.03,5
0.76,0.00,0.63,2.38,-4.03,1.04,46.83,-13.87,-20.10,5
0.76,0.02,0.65,3.54,-6.10,2.20,46.17,-13.71,-20.54,5
0.76,0.00,0.64,3.66,-2.32,1.77,46.23,-13.12,-20.76,5
0.76,0.02,0.63,4.94,1.16,7.81,46.19,-13.73,-20.94,5
0.77,0.04,0.64,5.43,-2.01,4.76,46.57,-13.73,-21.04,5
0.76,0.02,0.63,4.39,-2.08,1.46,46.19,-13.29,-19.62,5
0.77,0.02,0.62,4.76,-2.81,2.38,46.23,-13.72,-20.51,5
0.76,0.01,0.63,4.70,-3.36,0.79,46.25,-13.81,-19.73,5
0.76,0.02,0.63,4.33,-1.40,0.43,46.62,-13.49,-20.53,5
0.77,0.01,0.62,3.54,-1.89,2.56,46.53,-13.23,-20.46,5
0.76,0.03,0.63,2.20,-2.20,2.99,46.37,-13.98,-20.79,5
0.76,0.03,0.64,3.42,1.77,2.26,46.39,-13.57,-20.62,5
0.78,0.02,0.62,3.05,-1.89,1.34,46.01,-13.28,-20.51,5
0.77,0.02,0.62,3.23,-2.08,1.59,46.30,-12.93,-21.08,5
0.77,0.02,0.63,5.07,-2.93,0.43,46.42,-13.29,-20.09,5
0.77,0.02,0.62,4.21,-1.77,0.00,46.68,-12.93,-20.53,5
0.77,0.03,0.62,6.77,-0.49,2.20,45.95,-13.50,-20.85,5
0.77,0.01,0.62,6.71,-1.40,1.04,46.17,-13.48,-20.92,5
0.77,0.02,0.62,3.17,-2.08,1.95,46.47,-13.05,-19.38,5
0.77,0.02,0.62,3.66,-2.44,1.95,46.11,-13.48,-20.20,5
0.77,0.03,0.63,4.76,-2.93,1.16,45.96,-13.17,-20.86,5
0.77,0.01,0.62,3.54,-2.38,1.10,46.30,-13.10,-19.58,5
0.77,0.02,0.62,4.64,-2.56,0.49,46.50,-14.03,-19.57,5
0.78,0.02,0.62,4.33,-0.85,0.98,46.19,-13.42,-20.80,5
0.79,0.02,0.63,-1.10,3.48,1.04,46.28,-13.39,-20.17,5
0.78,0.04,0.61,-2.75,13.12,3.97,46.25,-12.99,-19.41,5
0.78,0.06,0.61,-2.87,24.29,-4.46,46.39,-13.56,-19.09,5
0.81,0.04,0.61,0.98,38.82,-5.19,46.84,-13.33,-17.50,5
0.87,0.00,0.60,21.00,63.96,-9.58,47.17,-13.29,-16.75,5
0.86,0.02,0.40,18.86,77.09,-13.43,47.28,-12.08,-15.66,5
0.89,-0.03,0.39,13.67,73.49,-13.43,47.35,-12.52,-12.19,5
0.99,-0.10,0.21,16.11,93.38,-8.12,46.95,-11.95,-10.07,5
0.94,-0.02,0.14,12.21,78.00,3.17,46.59,-11.29,-7.98,5
0.98,0.01,0.17,12.15,95.70,1.53,46.01,-11.99,-6.35,5
0.98,-0.09,-0.05,13.98,101.99,-11.23,45.37,-10.95,-3.08,5
0.90,-0.02,-0.01,14.16,62.44,-14.47,44.35,-11.17,-1.37,5
0.96,-0.07,-0.21,21.61,79.35,-7.57,43.35,-10.53,1.12,5
0.95,-0.09,-0.22,7.75,50.48,-2.50,41.87,-10.85,1.55,5
0.93,-0.09,-0.26,-0.43,61.65,-5.92,41.27,-11.05,3.31,5
0.93,-0.12,-0.35,15.50,63.35,-4.70,40.16,-10.75,4.81,5
0.91,-0.10,-0.38,11.35,44.62,-3.05,38.56,-10.49,6.12,5
0.91,-0.13,-0.46,-1.16,50.90,-4.03,38.45,-10.44,6.49,5
0.85,-0.15,-0.51,6.65,35.83,3.42,37.43,-10.03,7.96,5
0.91,-0.12,-0.46,11.72,28.14,-1.10,36.44,-9.72,8.52,5
0.82,-0.12,-0.56,6.35,44.62,-9.16,35.30,-10.14,9.05,5
0.77,-0.15,-0.63,3.36,33.33,7.02,33.86,-10.33,9.59,5
0.82,-0.11,-0.64,1.28,31.43,10.80,33.51,-10.52,9.86,5
0.78,-0.09,-0.53,7.14,17.27,15.93,33.06,-10.83,10.51,5
0.71,-0.08,-0.61,4.82,25.76,18.07,31.86,-11.17,11.39,5
0.76,-0.09,-0.69,7.93,7.14,14.22,31.49,-11.27,10.78,5
0.72,-0.04,-0.57,12.08,0.06,13.98,31.63,-11.01,11.65,5
0.78,-0.07,-0.69,10.62,6.71,3.17,31.47,-11.69,12.13,5
0.72,-0.05,-0.63,5.92,1.95,3.30,31.15,-11.87,11.55,5
0.74,-0.06,-0.69,7.14,0.67,-0.24,30.92,-11.27,11.13,5
0.75,-0.06,-0.69,7.39,-5.00,3.23,31.07,-12.11,11.77,5
0.71,-0.07,-0.65,2.99,-0.55,2.14,30.97,-11.78,12.15,5
0.76,-0.03,-0.69,-4.03,3.97,8.73,31.29,-11.77,11.41,5
0.71,-0.05,-0.64,8.67,-4.58,-0.73,30.60,-11.80,11.22,5
0.74,-0.04,-0.65,7.93,-1.95,4.64,30.76,-11.77,12.94,5
0.75,-0.04,-0.73,7.51,-3.72,2.81,30.76,-11.98,12.05,5
0.73,-0.05,-0.67,3.66,-1.83,3.23,30.11,-11.84,12.19,5
0.72,-0.04,-0.66,6.90,-5.07,0.98,30.22,-11.55,12.50,5
0.74,-0.04,-0.67,5.00,-3.23,1.53,30.88,-12.13,12.48,5
0.72,-0.04,-0.66,4.76,-3.11,0.18,30.53,-12.06,11.82,5
0.74,-0.04,-0.69,2.44,-7.32,-0.31,30.68,-11.94,12.66,5
0.73,-0.05,-0.67,2.81,-0.61,0.61,30.71,-12.46,11.34,5
0.75,-0.04,-0.68,4.33,-5.68,1.53,30.99,-12.34,12.30,5
0.74,-0.05,-0.65,5.98,-6.96,0.73,30.57,-11.96,11.60,5
0.75,-0.04,-0.70,3.72,-4.33,1.22,31.56,-11.84,11.61,5
0.74,-0.05,-0.68,7.08,-9.03,0.37,31.41,-12.70,11.01,5
0.74,-0.05,-0.69,3.11,-1.40,0.24,31.20,-12.11,11.56,5
0.75,-0.03,-0.65,8.12,-9.77,2.08,31.07,-12.49,11.68,5
0.77,-0.05,-0.64,7.75,-5.74,0.37,31.73,-11.45,11.21,5
0.75,-0.04,-0.69,8.85,-17.52,4.03,31.81,-12.41,11.78,5
0.77,-0.01,-0.68,14.77,-17.88,6.29,32.46,-12.89,10.63,5
0.79,-0.01,-0.62,20.45,-35.89,5.07,32.74,-12.66,10.18,5
0.77,0.03,-0.58,16.66,-19.84,-0.43,33.40,-13.92,10.56,5
0.79,-0.01,-0.64,9.28,-17.94,-3.23,34.03,-13.83,9.58,5
0.83,-0.01,-0.55,15.44,-41.63,8.48,34.74,-14.32,9.59,5
0.84,0.01,-0.51,2.62,-41.32,10.44,35.63,-13.93,8.09,5
0.88,0.01,-0.56,-5.49,-49.44,15.63,36.05,-14.05,8.17,5
0.88,0.03,-0.44,-11.23,-76.05,2.01,38.16,-14.05,6.57,5
0.91,0.08,-0.32,1.40,-79.65,4.82,39.58,-14.12,5.64,5
0.92,0.00,-0.29,-19.41,-117.74,-5.19,41.50,-14.18,3.67,5
0.97,0.04,-0.08,-16.97,-72.39,-2.32,42.85,-13.53,1.40,5
0.93,0.04,-0.17,-17.33,-63.60,7.93,43.68,-13.24,-1.60,5
0.96,0.07,0.01,-17.46,-64.21,7.93,44.85,-12.74,-2.33,5
0.98,0.03,0.08,-10.01,-36.07,4.76,45.23,-13.17,-2.86,5
1.04,0.02,0.05,-5.74,3.85,1.10,45.28,-12.67,-3.20,5
1.02,0.02,0.01,-0.92,-34.24,4.15,44.68,-12.63,-3.65,5
0.99,0.01,0.11,12.57,-5.13,4.03,45.23,-13.01,-3.30,5
1.00,0.02,-0.05,4.46,-1.71,5.37,45.62,-12.30,-3.06,5
0.96,0.05,0.08,12.21,-24.96,5.74,45.63,-13.04,-4.69,5
0.99,0.02,0.09,8.06,-9.89,3.17,45.90,-13.21,-5.46,5
1.01,0.02,0.09,12.33,4.21,-1.65,45.74,-13.43,-4.09,5
1.00,0.06,0.13,7.87,-6.59,3.91,45.89,-13.21,-3.96,5
0.97,0.06,0.08,7.45,4.94,0.12,45.21,-13.56,-4.36,5
1.01,0.03,0.06,6.41,-1.28,-2.93,45.36,-13.21,-3.59,5
1.00,0.01,0.03,8.54,1.77,-5.86,45.97,-13.29,-3.59,5
0.99,0.00,0.05,11.84,0.00,-4.39,45.87,-12.81,-3.60,5
1.00,0.00,0.06,6.04,-1.46,0.00,45.45,-12.44,-3.26,5
0.99,0.03,0.06,7.63,-4.21,0.00,45.58,-12.90,-5.18,5
0.99,-0.00,0.05,4.88,0.24,-0.24,45.79,-13.35,-3.36,5
0.99,0.01,0.06,6.96,-4.58,2.20,45.67,-12.89,-3.26,5
0.99,0.02,0.07,6.41,-3.17,0.61,45.68,-12.94,-4.13,5
0.99,0.00,0.05,3.91,-1.83,1.40,45.59,-13.28,-4.60,5
0.99,0.01,0.07,4.58,-2.26,0.55,45.91,-13.79,-3.85,5
0.99,0.01,0.07,4.46,-2.93,1.83,45.84,-12.96,-3.34,5
0.98,0.01,0.08,4.94,-2.44,0.85,45.79,-13.42,-3.44,5
0.99,0.00,0.06,4.64,-0.67,0.67,45.40,-13.04,-3.45,5
0.99,0.01,0.05,5.25,-3.54,1.40,45.63,-12.66,-4.43,5
0.99,0.01,0.05,4.52,-2.69,1.77,45.62,-12.84,-4.28,5
0.99,0.01,0.06,5.68,-3.97,1.28,45.57,-13.33,-4.35,5
0.99,-0.00,0.06,4.27,-3.48,0.67,45.58,-13.32,-3.70,5
0.99,0.01,0.06,5.80,-2.50,1.28,45.19,-13.26,-4.43,5
0.99,0.01,0.05,4.03,-2.38,1.46,45.40,-13.28,-4.32,5
0.99,0.01,0.06,4.33,-3.23,1.65,45.68,-13.22,-4.11,5
0.99,0.02,0.06,5.43,-2.20,1.16,45.74,-12.38,-4.76,5
0.99,0.01,0.05,4.58,-3.42,1.46,45.48,-13.02,-3.34,5
0.99,0.01,0.06,5.86,-2.99,1.16,45.50,-13.29,-3.08,5
0.98,0.01,0.07,4.70,-4.70,2.32,45.87,-13.11,-4.22,5
0.99,0.01,0.06,4.88,-2.20,0.55,45.37,-13.11,-2.80,5
0.99,0.01,0.05,5.37,-0.85,0.67,45.54,-12.87,-3.64,5
0.99,0.00,0.06,4.88,-3.48,1.40,45.28,-12.89,-3.61,5
0.99,0.01,0.06,4.94,-3.30,1.65,45.51,-13.37,-4.42,5
0.99,0.01,0.08,4.33,-4.21,1.34,45.85,-12.77,-4.15,5
0.98,0.00,0.06,4.21,-3.54,1.59,45.65,-13.12,-4.03,5
0.99,0.01,0.07,4.64,-3.11,1.71,45.62,-13.38,-4.25,5
0.99,0.01,0.06,4.58,-3.48,2.26,45.81,-13.26,-4.76,5
0.99,0.02,0.06,4.70,-2.26,1.10,45.97,-13.44,-4.63,5
0.99,0.01,0.06,4.27,-2.75,1.46,45.63,-13.16,-4.44,5
0.98,0.02,0.06,4.27,-3.05,1.16,46.00,-13.53,-3.65,5
0.99,-0.00,0.06,4.88,-2.26,0.43,45.84,-13.05,-4.05,5
0.99,0.02,0.06,3.17,-4.21,2.38,45.64,-12.37,-5.02,5
0.99,0.01,0.07,3.66,-3.23,-0.37,45.68,-13.00,-3.59,5
0.99,0.01,0.06,5.49,-0.67,-0.55,45.75,-13.53,-3.53,5
1.00,0.02,0.04,3.30,-8.24,0.49,46.04,-13.01,-3.98,5
0.99,0.00,0.09,0.92,-13.85,-2.44,45.45,-13.35,-4.00,5
0.99,-0.03,0.11,3.54,-16.72,-6.53,45.81,-12.84,-4.36,5
0.98,-0.02,0.11,4.09,-10.38,-1.04,46.04,-12.62,-5.53,5
0.99,0.00,0.07,4.27,-9.95,-3.48,46.22,-12.38,-5.25,5
0.98,0.03,0.14,6.47,-8.79,-4.70,46.48,-12.19,-5.30,5
0.98,-0.04,0.06,5.92,-14.65,-7.39,46.86,-12.43,-5.83,5
0.99,-0.07,0.18,15.26,-23.07,-17.09,46.37,-11.88,-6.85,5
0.98,-0.05,0.16,12.08,-17.52,-15.81,46.52,-11.43,-6.20,5
0.95,-0.09,0.16,19.29,-37.60,-24.60,46.62,-10.94,-7.26,5
0.95,-0.16,0.23,25.33,-58.17,-32.96,46.37,-10.11,-7.45,5
0.94,-0.11,0.20,9.89,-15.63,-5.55,47.06,-9.35,-9.19,5
0.95,-0.17,0.30,-3.11,-20.32,-9.52,47.22,-9.61,-9.35,5
0.94,-0.14,0.26,8.91,-4.15,-1.95,47.13,-9.33,-9.68,5
0.96,-0.20,0.33,7.63,-24.48,-15.99,47.18,-9.03,-10.34,5
0.93,-0.14,0.27,14.28,-10.07,-6.71,46.90,-8.92,-10.46,5
0.98,-0.20,0.28,7.45,-13.00,-14.53,47.33,-8.41,-11.16,5
0.91,-0.18,0.28,26.06,-1.77,-7.87,47.39,-7.93,-11.17,5
0.96,-0.24,0.26,13.06,-8.61,-27.04,47.42,-6.70,-10.86,5
0.90,-0.25,0.30,20.39,-5.98,-11.96,47.58,-6.87,-10.86,5
0.91,-0.28,0.31,23.50,-3.60,-15.56,47.22,-7.02,-10.03,5
0.89,-0.27,0.38,41.38,-3.23,-21.97,47.53,-5.98,-11.32,5
0.85,-0.29,0.19,34.06,-2.38,-22.03,47.00,-5.52,-10.50,5
0.88,-0.34,0.27,52.43,17.46,-19.71,46.86,-4.79,-10.17,5
0.89,-0.42,0.21,21.97,2.50,-25.94,46.81,-4.58,-9.77,5
0.88,-0.44,0.23,24.96,0.92,-22.52,46.63,-3.97,-8.68,5
0.86,-0.45,0.18,22.46,4.64,-10.38,46.39,-3.72,-8.41,5
0.86,-0.45,0.18,9.03,-7.81,-4.64,46.31,-3.74,-9.55,5
0.85,-0.45,0.24,3.30,-6.29,-6.10,46.45,-2.92,-9.61,5
0.86,-0.49,0.18,4.94,-4.64,-5.68,46.03,-2.67,-9.12,5
0.86,-0.49,0.20,-9.40,-14.77,-3.17,46.23,-3.06,-9.17,5
0.87,-0.49,0.21,4.58,-3.78,0.24,46.42,-2.45,-8.46,5
0.85,-0.47,0.22,0.37,-3.91,-0.18,45.86,-2.39,-9.27,5
0.85,-0.49,0.19,12.33,3.85,-5.00,46.19,-1.72,-8.76,5
0.83,-0.49,0.15,2.81,1.10,-3.30,46.36,-1.49,-9.17,5
0.86,-0.47,0.22,17.40,-0.12,-6.04,46.03,-1.94,-8.76,5
0.85,-0.56,0.22,26.67,24.72,-17.64,45.52,-1.49,-7.95,5
0.83,-0.50,0.20,16.54,45.90,-8.97,45.34,-1.33,-6.35,5
0.85,-0.56,0.04,16.17,44.01,4.70,44.53,-1.27,-6.52,5
0.84,-0.52,0.01,16.60,40.59,13.55,44.46,-1.75,-3.34,5
0.86,-0.51,0.04,19.84,50.42,14.71,44.25,-1.78,-2.87,5
0.86,-0.50,-0.05,6.84,34.55,10.01,43.60,-2.26,-1.28,5
0.86,-0.54,-0.12,24.60,69.46,22.52,43.19,-2.75,-1.04,5
0.86,-0.46,-0.27,5.19,34.36,17.70,42.02,-3.54,1.25,5
0.86,-0.48,-0.25,10.86,46.57,16.60,42.15,-3.74,1.88,5
0.85,-0.42,-0.25,18.31,49.44,22.52,40.97,-4.09,3.25,5
0.85,-0.44,-0.27,5.98,23.19,15.08,40.48,-4.70,4.28,5
0.85,-0.41,-0.35,5.49,19.29,7.20,39.92,-4.77,4.92,5
0.85,-0.44,-0.34,10.25,22.52,9.40,39.73,-5.11,4.69,5
0.83,-0.39,-0.35,8.97,18.43,9.83,39.27,-5.52,6.15,5
0.83,-0.39,-0.43,8.91,28.02,7.45,39.01,-5.16,5.48,5
0.83,-0.43,-0.38,-1.89,-8.54,3.30,38.53,-5.38,5.97,5
0.82,-0.39,-0.40,-2.26,-2.26,1.04,38.66,-5.14,5.73,5
0.85,-0.44,-0.41,-2.20,-12.63,6.96,38.53,-5.02,6.09,5
0.85,-0.38,-0.37,-4.88,-6.35,17.94,38.94,-5.52,4.88,5
0.85,-0.38,-0.38,0.31,-16.60,15.32,39.37,-5.69,6.13,5
0.86,-0.36,-0.38,0.92,-8.61,7.08,39.60,-6.12,4.96,5
0.86,-0.40,-0.40,-0.73,-18.98,9.40,39.98,-6.01,4.94,5
0.87,-0.32,-0.26,-3.78,-31.31,13.18,40.66,-6.23,4.85,5
0.88,-0.36,-0.31,0.98,-13.49,5.80,40.66,-5.65,4.00,5
0.90,-0.37,-0.35,-1.28,-34.91,12.21,41.76,-5.93,3.17,5
0.90,-0.33,-0.20,-4.70,-27.89,2.26,42.26,-6.47,2.92,5
0.91,-0.35,-0.27,-6.96,-37.11,9.83,42.65,-6.07,1.72,5
0.92,-0.34,-0.02,-16.42,-43.03,5.31,43.26,-6.10,1.71,5
0.93,-0.36,-0.19,-3.72,-30.70,8.85,43.69,-6.08,0.90,5
0.92,-0.30,0.04,-13.61,-54.20,19.59,44.59,-6.87,-0.54,5
0.96,-0.32,-0.06,-6.77,-22.52,9.46,44.03,-6.99,-2.65,5
0.94,-0.31,-0.04,-7.93,-33.39,13.92,44.76,-6.43,-3.21,5
0.96,-0.29,0.01,-20.57,-32.78,10.99,45.21,-6.65,-3.89,5
0.96,-0.29,0.06,-15.75,-37.90,12.08,45.96,-6.62,-4.81,5
0.94,-0.24,0.15,-16.54,-39.49,10.86,46.47,-6.73,-4.97,5
0.95,-0.26,0.13,-8.18,-27.28,9.16,46.24,-7.23,-6.74,5
0.95,-0.25,0.15,-0.49,-15.01,9.95,46.48,-7.21,-7.02,5
0.94,-0.21,0.19,-2.62,-22.16,15.44,46.84,-7.36,-7.25,5
0.95,-0.22,0.20,-2.08,-16.72,10.56,46.84,-7.75,-7.75,5
0.94,-0.21,0.20,-0.55,-14.83,10.74,47.01,-7.90,-8.46,5
0.96,-0.22,0.21,-2.50,-14.34,11.35,47.30,-8.57,-8.39,5
0.94,-0.20,0.21,-2.01,-18.62,16.36,47.28,-8.87,-8.13,5
0.94,-0.18,0.24,-5.13,-17.40,18.01,47.27,-9.03,-9.12,5
0.94,-0.14,0.26,-7.63,-18.68,17.58,47.20,-9.68,-10.28,5
0.93,-0.13,0.31,-6.77,-23.86,17.70,48.03,-9.05,-11.06,5
0.95,-0.12,0.28,-6.77,-18.07,15.32,47.46,-9.61,-9.53,5
0.94,-0.10,0.30,-2.08,-18.98,17.94,48.11,-10.12,-11.47,5
0.93,-0.07,0.34,-1.28,-13.06,14.16,47.90,-11.15,-11.56,5
0.93,-0.07,0.36,0.79,-8.48,10.62,47.66,-10.94,-11.80,5
0.92,-0.07,0.34,1.10,-5.49,10.07,47.78,-10.79,-11.73,5
0.91,-0.06,0.38,2.56,-1.77,5.98,47.89,-11.34,-12.23,5
0.94,-0.08,0.35,-1.95,15.56,21.30,47.63,-11.88,-11.84,5
0.95,-0.02,0.34,3.54,10.93,26.37,47.73,-12.55,-11.40,5
0.93,-0.03,0.36,-1.28,14.65,33.75,47.89,-13.22,-10.71,5
0.94,0.03,0.30,17.15,18.13,32.47,47.57,-14.05,-10.25,5
0.91,0.11,0.26,7.63,6.53,20.94,46.74,-14.97,-10.63,5
0.98,0.08,0.27,6.96,21.85,13.49,47.41,-14.79,-10.16,5
0.94,0.10,0.21,9.52,14.34,17.21,46.92,-15.84,-8.87,5
0.97,0.10,0.25,3.17,11.72,7.81,46.69,-16.08,-8.72,5
0.96,0.11,0.20,4.52,18.74,8.97,46.78,-15.87,-8.13,5
0.97,0.13,0.16,1.10,21.48,8.18,46.47,-16.09,-7.70,5
0.97,0.13,0.20,0.37,34.12,5.62,46.51,-16.31,-6.67,5
0.96,0.09,0.10,4.09,23.68,8.36,45.79,-16.71,-5.00,5
0.98,0.14,0.11,11.54,15.50,4.76,45.92,-16.43,-5.21,5
0.96,0.15,0.08,10.68,22.03,7.75,45.20,-16.27,-4.50,5
0.97,0.11,0.03,3.72,22.83,4.70,45.00,-17.18,-3.42,5
0.97,0.13,0.03,4.70,10.86,3.85,44.93,-16.77,-2.94,5
0.98,0.14,0.05,2.38,21.42,8.12,44.25,-16.83,-2.55,5
0.97,0.15,-0.01,6.96,18.19,0.06,44.57,-16.93,-3.47,5
0.97,0.14,-0.06,7.02,12.39,-0.43,44.56,-17.11,-3.20,5
0.99,0.13,-0.02,6.71,14.53,-2.14,44.31,-17.14,-2.51,5
0.99,0.15,-0.03,0.49,14.53,-1.77,44.49,-17.04,-2.23,5
0.97,0.11,-0.11,0.00,21.42,-2.50,43.85,-16.72,-1.72,5
0.97,0.11,-0.11,4.39,7.14,1.10,43.13,-16.10,-1.60,5
0.99,0.14,-0.08,3.72,8.48,0.18,43.74,-16.46,0.39,5
0.98,0.11,-0.11,5.25,11.05,-2.44,43.60,-16.67,-0.45,5
0.96,0.12,-0.11,4.21,9.34,-1.59,43.43,-16.65,0.68,5
0.97,0.10,-0.13,3.54,4.52,-1.04,42.83,-16.26,1.86,5
0.97,0.12,-0.13,4.15,11.35,0.85,42.72,-16.04,1.51,5
0.98,0.11,-0.17,2.87,13.92,-1.77,42.70,-16.42,1.06,5
0.95,0.10,-0.14,8.79,8.00,1.46,42.48,-16.65,1.17,5
0.97,0.11,-0.19,2.01,12.70,-2.87,42.37,-16.30,2.09,5
0.96,0.09,-0.22,6.04,15.08,-2.50,41.49,-15.30,2.42,5
0.96,0.12,-0.17,11.96,9.46,2.20,41.41,-15.48,2.62,5
0.97,0.10,-0.25,8.79,6.77,1.16,41.19,-16.21,4.13,5
0.96,0.13,-0.19,6.16,5.62,0.49,41.17,-16.03,2.58,5
0.96,0.10,-0.24,6.84,-1.04,-0.49,41.13,-15.88,2.45,5
0.96,0.11,-0.23,4.52,3.54,-1.77,40.98,-15.43,2.81,5
0.95,0.10,-0.23,5.80,-3.66,-2.14,41.02,-15.92,3.31,5
0.95,0.09,-0.26,2.87,-2.81,-2.26,40.83,-15.67,2.83,5
0.95,0.09,-0.23,2.99,-5.00,-2.93,40.94,-15.52,3.81,5
0.97,0.09,-0.24,2.26,-10.50,-5.00,42.02,-15.67,2.56,5
0.95,0.07,-0.23,6.04,-13.24,-8.36,41.13,-15.21,3.38,5
0.97,0.06,-0.25,5.25,-12.63,-10.19,41.72,-15.50,2.27,5
0.97,0.08,-0.22,6.77,-20.26,-12.27,42.68,-15.43,1.50,5
0.97,0.03,-0.15,7.87,-14.71,-10.07,43.02,-14.99,1.71,5
0.97,0.02,-0.21,5.74,-12.15,-10.74,42.82,-14.93,1.86,5
0.98,0.01,-0.18,6.04,-8.54,-11.41,42.61,-14.40,1.10,5
0.97,-0.01,-0.16,6.41,-11.66,-5.55,42.86,-13.61,2.22,5
0.97,0.05,-0.23,3.54,-14.10,-9.34,43.26,-13.66,2.19,5
0.99,-0.05,-0.10,5.92,-20.69,-18.31,43.21,-13.09,1.07,5
0.98,-0.07,-0.13,3.60,-0.79,-4.33,43.53,-13.01,0.74,5
0.99,-0.04,-0.13,4.58,-4.76,-0.31,42.99,-12.63,-0.28,5
0.98,-0.09,-0.09,6.84,-6.35,-4.58,43.58,-12.46,-0.59,5
0.96,0.01,-0.16,5.55,-4.46,-1.28,43.63,-12.77,-0.71,5
1.01,-0.09,-0.11,32.35,0.18,-20.87,43.81,-12.07,0.72,5
0.94,-0.01,-0.14,17.52,-12.33,-23.13,43.59,-12.08,-0.18,5
0.94,-0.22,-0.12,1.83,-13.73,-12.45,44.12,-11.63,0.67,5
0.99,-0.15,-0.06,9.34,-14.22,-14.77,44.10,-11.77,0.70,5
0.94,-0.09,-0.10,-3.66,-35.52,-26.12,43.98,-11.27,-0.96,5
0.99,-0.15,-0.08,0.55,-3.72,-20.69,44.65,-11.04,-1.22,5
0.91,-0.19,-0.12,-0.31,-0.31,-22.58,44.67,-11.00,-1.86,5
1.01,-0.31,-0.05,4.03,-12.76,-23.68,44.49,-9.39,-1.00,5
0.93,-0.20,0.00,2.99,-4.33,-13.55,44.62,-9.06,-0.33,5
1.00,-0.32,-0.03,6.53,-18.62,-27.59,45.07,-8.64,-2.08,5
0.96,-0.25,-0.03,7.02,-10.25,-3.30,45.03,-7.58,-1.92,5
0.91,-0.22,-0.07,9.83,-7.87,-12.88,45.30,-7.86,-1.77,5
0.96,-0.37,-0.07,12.08,-8.67,-0.06,45.12,-7.17,-2.76,5
0.93,-0.24,-0.00,5.31,-4.33,1.71,45.48,-8.06,-1.90,5
0.96,-0.32,-0.04,7.81,0.00,-4.82,45.19,-7.37,-1.79,5
0.95,-0.30,-0.00,1.28,-5.13,-0.79,45.37,-6.95,-2.51,5
0.93,-0.26,-0.01,2.81,-4.33,3.48,45.32,-7.24,-2.39,5
0.95,-0.31,-0.03,7.45,-3.97,-5.07,44.46,-6.91,-3.00,5
0.94,-0.28,-0.01,6.84,-2.01,-3.91,44.76,-6.71,-2.15,5
0.96,-0.35,-0.06,8.91,-0.24,-4.58,44.91,-6.51,-2.36,5
0.94,-0.30,-0.01,6.71,-2.99,-0.37,44.60,-6.71,-2.44,5
0.95,-0.33,0.00,5.25,-1.40,-1.28,45.07,-6.63,-2.12,5
0.99,-0.35,-0.06,4.82,1.04,3.78,44.92,-6.88,-2.17,5
0.95,-0.31,-0.07,3.97,2.38,6.65,45.64,-6.76,-3.54,5
0.94,-0.29,-0.03,4.88,-4.46,10.13,45.25,-7.45,-2.73,5
0.95,-0.28,-0.04,4.09,0.92,11.47,44.89,-7.82,-3.14,5
0.95,-0.25,-0.03,15.87,-0.06,11.47,45.08,-7.68,-1.92,5
0.95,-0.26,-0.00,-3.66,-1.77,5.80,45.14,-8.02,-2.12,5
0.96,-0.29,-0.04,2.44,-3.60,4.09,44.92,-7.67,-2.10,5
0.96,-0.28,-0.03,2.01,-3.23,1.53,44.80,-7.93,-2.49,5
0.96,-0.28,-0.03,1.59,-1.04,2.81,44.63,-7.69,-2.60,5
0.94,-0.30,-0.06,5.19,0.92,0.92,44.68,-7.93,-2.65,5
0.96,-0.28,-0.03,3.60,-3.36,4.15,44.41,-8.28,-2.54,5
0.95,-0.27,-0.03,3.60,-1.95,1.16,44.95,-7.92,-2.89,5
0.96,-0.27,-0.03,1.89,-3.72,2.99,45.34,-8.02,-2.93,5
0.97,-0.28,-0.03,4.46,-3.85,2.44,44.78,-7.75,-3.28,5
0.97,-0.29,-0.03,1.34,-2.20,2.20,44.90,-8.24,-2.64,5
0.96,-0.27,-0.03,3.48,-0.43,2.93,45.18,-8.58,-2.89,5
0.95,-0.26,-0.05,2.75,-2.32,4.09,44.96,-7.86,-3.69,5
0.96,-0.26,-0.05,3.97,-0.92,2.38,45.43,-8.31,-2.42,5
0.96,-0.27,-0.04,3.48,-0.31,2.32,44.87,-7.68,-1.23,5
0.96,-0.26,-0.05,3.91,-3.72,3.36,44.97,-8.56,-1.71,5
0.96,-0.26,-0.02,3.17,-2.44,1.34,45.14,-7.81,-2.99,5
0.96,-0.28,-0.04,4.64,-1.89,1.40,44.96,-8.11,-2.87,5
0.96,-0.26,-0.04,2.81,-1.89,3.11,44.89,-8.17,-2.70,5
0.95,-0.24,-0.03,3.60,-1.04,0.85,45.08,-8.29,-2.31,5
0.96,-0.28,-0.06,2.44,-1.28,2.38,44.71,-8.31,-3.36,5
0.96,-0.27,-0.03,2.62,-3.36,2.93,44.97,-8.28,-2.17,5
0.96,-0.26,-0.03,3.11,-1.65,1.77,45.25,-8.18,-2.38,5
0.96,-0.27,-0.04,2.44,-3.36,4.58,44.76,-7.32,-2.34,5
0.96,-0.25,-0.04,0.43,-1.95,3.72,45.08,-8.54,-1.40,5
0.97,-0.26,-0.02,1.59,-2.75,2.26,44.48,-8.18,-3.02,5
0.96,-0.26,-0.03,-1.16,-3.60,3.60,45.08,-8.35,-1.64,5
0.96,-0.24,-0.05,2.20,-3.48,4.82,45.15,-8.17,-1.60,5
0.96,-0.27,-0.05,3.48,-2.32,1.53,44.68,-8.25,-1.92,5
0.96,-0.23,-0.02,4.70,-4.88,4.82,45.14,-8.04,-1.97,5
0.97,-0.25,-0.03,3.97,-3.30,3.17,45.10,-8.51,-1.87,5
0.96,-0.24,-0.05,5.43,-0.55,2.01,45.06,-8.37,-2.59,5
0.96,-0.23,-0.02,3.97,-2.26,1.40,45.19,-8.20,-3.10,5
0.96,-0.25,-0.03,4.33,-1.53,0.61,44.67,-7.97,-3.11,5
0.97,-0.24,-0.05,5.19,-1.59,1.89,44.87,-8.61,-3.23,5
0.96,-0.22,-0.02,5.80,-3.66,1.65,44.54,-8.47,-2.14,5
0.96,-0.24,-0.03,1.34,-3.23,2.81,45.31,-9.27,-2.43,5
0.96,-0.26,-0.04,2.56,-1.83,3.05,45.42,-8.22,-2.33,5
0.96,-0.23,-0.02,2.93,-2.14,2.62,44.98,-9.02,-1.26,5
0.96,-0.25,-0.05,4.52,-0.73,0.85,45.07,-8.80,-2.23,5
0.96,-0.24,-0.03,4.27,-3.05,3.17,45.24,-8.22,-2.04,5
0.97,-0.23,-0.04,2.14,-1.16,2.87,44.62,-8.83,-2.01,5
0.96,-0.25,-0.05,4.76,-0.79,1.89,45.13,-8.62,-2.38,5
0.96,-0.19,-0.06,1.83,2.26,10.62,44.69,-8.59,-2.23,5
0.97,-0.22,-0.05,2.20,-2.14,1.65,44.60,-8.83,-2.72,5
0.97,-0.21,-0.04,3.42,-3.17,3.72,44.96,-9.01,-1.97,5
0.98,-0.23,-0.02,0.43,-3.17,2.20,44.97,-8.91,-1.86,5
0.97,-0.22,-0.05,5.19,-1.71,2.99,45.15,-8.65,-2.19,5
0.97,-0.22,-0.05,2.93,-2.75,2.87,44.59,-9.47,-3.31,5
0.97,-0.23,-0.05,4.64,-1.59,0.43,45.46,-8.74,-0.84,5
0.97,-0.24,-0.06,5.55,-0.85,1.10,45.17,-8.67,-2.40,5
0.96,-0.21,-0.04,3.78,-3.17,1.10,45.19,-8.42,-2.60,5
0.97,-0.23,-0.04,4.64,-2.08,1.04,44.46,-8.61,-1.23,5
0.97,-0.22,-0.05,4.09,-1.59,1.77,44.52,-9.14,-2.88,5
0.97,-0.21,-0.05,3.36,-3.30,2.93,44.91,-8.24,-2.70,5
0.96,-0.21,-0.04,4.03,-2.01,1.95,44.98,-8.72,-2.87,5
0.97,-0.23,-0.06,4.09,-2.14,1.34,45.30,-8.61,-1.38,5
0.97,-0.22,-0.03,3.60,-3.48,1.71,44.79,-8.45,-2.05,5
0.97,-0.22,-0.05,5.07,-3.23,0.98,44.64,-8.81,-1.81,5
0.96,-0.22,-0.05,3.72,-2.62,2.62,45.06,-8.89,-2.22,5
0.97,-0.24,-0.07,4.03,-1.34,0.61,45.28,-8.78,-1.37,5
0.96,-0.20,-0.06,2.26,-3.05,2.99,44.73,-9.00,-2.48,5
0.97,-0.23,-0.05,3.66,-1.34,1.77,44.68,-9.77,-2.45,5
0.97,-0.21,-0.06,3.36,-2.38,3.97,44.91,-9.07,-2.75,5
0.97,-0.21,-0.04,3.36,-2.69,2.26,45.23,-8.95,-2.54,5
0.97,-0.21,-0.05,4.52,-2.69,1.83,44.78,-8.47,-2.23,5
0.97,-0.22,-0.04,4.33,-2.81,1.65,44.68,-8.97,-2.44,5
0.97,-0.21,-0.06,3.78,-1.40,1.46,44.49,-9.39,-2.55,5
0.97,-0.20,-0.05,3.66,-3.91,2.01,45.10,-9.27,-2.84,5
0.96,-0.22,-0.05,2.75,-1.53,2.08,45.48,-9.06,-2.06,5
0.97,-0.22,-0.07,3.36,-2.20,2.50,44.62,-8.75,-2.40,5
0.97,-0.20,-0.04,2.01,-2.99,4.70,44.75,-8.30,-1.94,5
0.97,-0.21,-0.05,3.23,-2.08,1.83,44.80,-9.05,-2.91,5
0.98,-0.22,-0.04,3.30,-1.77,3.54,45.02,-8.97,-2.39,5
0.97,-0.22,-0.05,2.75,-1.65,1.34,44.81,-8.85,-1.89,5
0.97,-0.21,-0.06,2.99,-3.42,2.20,44.93,-8.84,-2.59,5
0.97,-0.20,-0.04,4.09,-2.99,1.83,44.67,-9.25,-2.43,5
0.97,-0.21,-0.05,4.82,-2.38,0.43,45.73,-9.12,-1.75,5
0.96,-0.19,-0.03,3.17,-4.76,3.11,44.69,-9.17,-2.37,5
0.97,-0.19,-0.03,3.72,-3.36,1.53,44.78,-9.22,-1.93,5
0.96,-0.21,-0.05,2.14,-3.78,3.54,44.78,-8.73,-2.53,5
0.97,-0.21,-0.06,2.81,-1.83,0.98,45.21,-9.61,-2.38,5
0.97,-0.21,-0.05,5.62,-2.99,0.98,44.81,-9.42,-1.33,5
0.97,-0.20,-0.05,2.56,-3.05,2.99,44.74,-8.61,-2.58,5
0.97,-0.20,-0.06,3.23,-2.81,1.95,44.68,-8.87,-2.27,5
0.97,-0.20,-0.04,3.78,-2.69,1.77,45.13,-9.42,-2.00,5
0.98,-0.21,-0.07,3.23,-2.38,3.30,44.96,-9.01,-0.83,5
0.97,-0.19,-0.05,4.88,-3.17,2.08,44.89,-9.13,-2.37,5
0.97,-0.19,-0.05,2.99,-3.11,1.22,44.62,-9.18,-1.45,5
0.97,-0.20,-0.05,4.15,-3.85,3.05,44.76,-9.17,-1.92,5
0.97,-0.20,-0.05,3.91,-2.38,0.49,44.82,-9.00,-1.77,5
0.97,-0.21,-0.05,4.21,-3.78,1.10,44.81,-9.02,-2.60,5
0.97,-0.19,-0.04,3.60,-2.81,0.98,44.69,-9.24,-2.10,5
0.97,-0.20,-0.06,3.97,-2.01,1.34,44.32,-8.96,-1.99,5
0.97,-0.20,-0.06,5.19,-2.99,1.71,44.62,-9.18,-0.38,5
0.97,-0.18,-0.04,4.88,-3.17,0.24,44.60,-8.73,-1.28,5
0.97,-0.21,-0.05,4.09,-3.48,2.32,44.09,-9.30,-1.17,5
0.97,-0.19,-0.04,4.46,-2.01,0.98,44.32,-8.92,-1.59,5
0.97,-0.22,-0.06,4.21,-3.60,0.73,44.62,-9.55,-1.77,5
0.97,-0.20,-0.04,3.97,-1.46,0.92,44.87,-9.18,-2.09,5
0.97,-0.21,-0.06,3.85,-2.14,2.26,44.62,-9.01,-1.67,5
0.97,-0.19,-0.06,3.36,-2.75,1.53,44.42,-8.78,-2.70,5
0.97,-0.21,-0.05,5.25,-1.89,1.28,44.59,-9.09,-2.01,5
0.97,-0.19,-0.05,4.88,-2.75,0.61,44.89,-9.05,-0.52,5
0.97,-0.20,-0.07,4.64,-4.27,3.05,44.30,-8.73,-0.61,5
0.97,-0.21,-0.06,3.23,-1.53,1.10,44.60,-9.35,-1.98,5
0.97,-0.19,-0.04,3.17,-3.54,2.38,45.21,-8.76,-2.25,5
0.97,-0.21,-0.05,4.03,-2.69,0.79,44.54,-8.75,-0.62,5
0.97,-0.19,-0.06,5.00,-2.75,1.83,44.21,-9.22,-1.50,5
0.97,-0.20,-0.07,3.85,-1.77,2.01,44.34,-9.38,-2.00,5
0.97,-0.21,-0.05,5.07,-2.99,0.92,44.64,-9.13,-1.81,5
0.97,-0.18,-0.05,3.97,-3.66,2.14,44.73,-9.24,-2.09,5
0.97,-0.20,-0.03,5.07,-2.93,1.46,44.21,-9.11,-1.35,5
0.97,-0.20,-0.05,3.17,-2.50,1.46,44.29,-8.75,-2.19,5
0.97,-0.20,-0.07,4.46,-2.50,1.22,44.43,-9.05,-2.55,5
0.97,-0.20,-0.05,2.87,-2.93,2.81,44.48,-9.02,-1.70,5
0.97,-0.21,-0.05,5.37,-3.23,0.31,44.45,-9.57,-2.36,5
0.97,-0.21,-0.05,4.33,-3.36,1.22,44.40,-9.03,-2.88,5
0.97,-0.19,-0.04,4.88,-3.91,2.14,44.38,-8.53,-1.81,5
0.97,-0.20,-0.07,3.85,-1.16,0.92,44.53,-9.36,-2.84,5
0.97,-0.20,-0.05,4.76,-3.72,2.81,44.42,-9.12,-1.42,5
0.97,-0.19,-0.05,2.75,-2.32,1.53,44.43,-9.70,-1.90,5
0.97,-0.20,-0.06,4.09,-2.99,1.40,44.75,-9.08,-1.53,5
0.97,-0.20,-0.05,3.78,-1.89,1.16,44.89,-8.98,-1.09,5
0.97,-0.21,-0.07,3.66,-2.87,1.77,44.40,-9.47,-0.94,5
0.97,-0.20,-0.04,4.33,-2.38,0.79,44.75,-8.85,-2.09,5
0.96,-0.17,-0.02,2.81,-3.78,2.56,44.48,-9.12,-1.95,5
0.97,-0.21,-0.06,4.21,-0.98,1.71,44.53,-9.00,-1.81,5
0.97,-0.18,-0.06,4.15,-2.20,2.81,44.85,-9.09,-1.39,5
0.97,-0.20,-0.06,3.91,-3.11,1.40,44.76,-9.31,-1.98,5
0.98,-0.21,-0.05,3.30,-2.14,1.28,44.42,-9.27,-1.57,5
0.97,-0.19,-0.05,4.03,-3.85,1.95,44.56,-9.36,-2.56,5
0.98,-0.20,-0.05,4.27,-2.87,0.43,44.40,-8.41,-1.86,5
0.96,-0.19,-0.05,4.27,-3.11,2.32,44.46,-9.28,-1.75,5
0.98,-0.20,-0.06,3.78,-4.09,1.22,44.73,-9.34,-1.67,5
0.97,-0.19,-0.04,2.50,-3.85,2.44,44.95,-9.62,-1.57,5
0.97,-0.19,-0.06,3.72,-3.66,1.22,44.45,-9.39,-1.29,5
0.97,-0.19,-0.05,3.48,-2.81,2.08,44.30,-9.57,-1.06,5
0.97,-0.20,-0.05,5.74,-2.32,1.53,44.56,-9.36,-1.82,5
0.97,-0.19,-0.05,3.66,-4.82,3.11,44.25,-9.55,-1.62,5
0.97,-0.18,-0.03,3.23,-4.09,1.65,44.58,-9.40,-1.29,5
0.98,-0.20,-0.04,3.05,-2.93,1.46,45.17,-9.41,-0.87,5
0.97,-0.19,-0.03,3.78,-4.27,2.32,45.02,-9.38,-1.86,5
0.98,-0.20,-0.05,3.54,-2.56,2.01,44.70,-9.03,-0.79,5
0.97,-0.19,-0.04,3.11,-2.75,2.14,45.42,-9.61,-2.21,5
0.97,-0.19,-0.04,3.11,-3.66,2.01,44.71,-9.41,-2.17,5
0.97,-0.20,-0.04,4.88,-3.17,1.10,45.02,-9.86,-1.76,5
0.97,-0.20,-0.06,2.62,-2.50,2.20,44.34,-9.51,-3.26,5
0.97,-0.19,-0.03,3.72,-4.39,0.79,44.96,-9.66,-1.71,5
0.97,-0.18,-0.06,3.85,-2.93,2.87,45.19,-9.81,-2.21,5
0.97,-0.18,-0.04,2.62,-5.31,2.08,44.78,-8.90,-1.44,5
0.98,-0.19,-0.04,5.92,-2.75,0.18,45.51,-9.28,-1.81,5
0.97,-0.20,-0.04,4.58,-6.41,1.53,45.15,-9.28,-1.78,5
0.97,-0.18,-0.02,5.25,-4.94,2.99,45.62,-9.51,-1.50,5
0.97,-0.19,-0.04,4.46,-4.15,0.73,44.74,-9.94,-1.43,5
0.98,-0.18,-0.03,3.60,-5.62,4.09,45.21,-10.02,-2.16,5
0.97,-0.18,-0.02,4.88,-3.60,1.89,45.24,-9.86,-2.05,5
0.98,-0.20,-0.04,4.88,-3.36,2.87,45.12,-9.16,-2.58,5
0.97,-0.17,-0.01,4.33,-5.13,4.39,45.45,-9.99,-2.40,5
0.98,-0.19,-0.04,4.58,-1.65,0.37,45.31,-9.52,-1.33,5
0.97,-0.18,-0.02,3.97,-3.97,3.54,45.24,-9.68,-3.47,5
0.97,-0.16,-0.03,4.21,-2.14,2.08,44.74,-9.92,-1.99,5
0.98,-0.18,-0.02,5.00,-3.54,2.14,44.97,-9.81,-1.00,5
0.98,-0.18,-0.03,2.81,-1.28,1.46,45.04,-10.06,-3.21,5
0.97,-0.17,-0.05,2.93,-2.32,2.75,45.47,-9.53,-2.05,5
0.97,-0.18,-0.03,3.66,-3.17,2.75,45.02,-10.25,-2.88,5
0.98,-0.19,-0.04,4.15,-0.49,-0.43,44.75,-9.45,-2.47,5
0.98,-0.18,-0.02,4.46,-4.03,3.36,44.34,-10.28,-3.55,5
