ax,ay,az,gx,gy,gz,mx,my,mz,label
-0.01,-0.02,1.00,3.78,-3.17,1.34,23.84,0.62,-39.14,1
-0.01,-0.02,1.00,3.72,-3.23,1.46,24.12,-0.65,-39.83,1
-0.02,-0.02,1.00,3.72,-3.36,1.34,23.99,-0.29,-39.49,1
-0.01,-0.02,0.99,4.03,-3.42,1.53,23.41,-0.44,-39.23,1
-0.01,-0.02,1.00,3.78,-3.42,1.53,23.58,-0.50,-40.32,1
-0.01,-0.02,1.00,3.78,-3.30,1.28,23.96,-0.70,-40.23,1
-0.01,-0.02,1.00,3.60,-3.05,1.59,23.95,-0.06,-39.72,1
-0.02,-0.02,1.00,3.72,-3.17,1.46,23.50,-0.42,-39.84,1
-0.02,-0.02,1.00,3.66,-3.36,1.53,23.58,0.02,-39.58,1
-0.01,-0.01,1.00,3.85,-3.17,2.75,23.86,0.11,-39.76,1
-0.02,-0.02,1.00,3.66,-3.11,2.44,23.82,-0.29,-39.01,1
-0.02,-0.02,1.00,3.91,-3.11,2.69,23.73,0.82,-39.70,1
-0.01,-0.02,1.00,3.78,-3.17,1.59,24.06,-0.71,-39.62,1
-0.01,-0.02,1.00,3.72,-3.23,2.38,23.82,-0.55,-40.27,1
-0.01,-0.02,1.00,3.66,-3.11,1.71,23.91,-0.04,-39.93,1
-0.01,-0.02,1.00,3.72,-3.23,1.34,23.84,-0.45,-39.37,1
-0.02,-0.02,1.00,3.85,-3.05,1.53,23.77,-0.40,-39.51,1
-0.01,-0.02,0.99,3.91,-3.17,1.28,24.02,-0.24,-39.67,1
-0.01,-0.02,1.00,3.60,-3.30,1.34,23.86,0.35,-39.15,1
-0.01,-0.02,1.00,3.78,-3.17,1.28,23.94,-0.45,-39.10,1
-0.01,-0.02,1.00,3.91,-3.23,1.46,23.36,-0.09,-39.61,1
-0.01,-0.02,1.00,3.78,-3.05,1.10,23.88,0.21,-39.81,1
-0.01,-0.02,1.00,3.72,-3.23,1.53,23.78,0.31,-39.53,1
-0.01,-0.02,1.00,4.03,-3.17,1.34,23.67,-0.05,-39.51,1
-0.01,-0.02,1.00,3.78,-3.17,1.59,24.02,0.59,-39.82,1
-0.02,-0.02,1.00,3.85,-3.30,1.65,23.90,0.78,-40.41,1
-0.01,-0.02,1.00,3.85,-3.30,2.01,23.61,0.60,-39.70,1
-0.01,-0.02,1.00,3.97,-3.11,3.17,23.95,-0.77,-39.31,1
-0.01,-0.01,1.00,3.85,-2.99,4.03,23.67,-0.83,-39.90,1
-0.02,-0.01,1.00,3.91,-3.05,4.94,24.39,-0.52,-40.48,1
-0.02,-0.01,1.00,4.09,-3.23,2.75,24.50,-0.48,-40.61,1
-0.01,-0.01,1.00,3.97,-3.17,6.96,24.24,-0.62,-39.79,1
-0.02,-0.02,1.00,3.42,-2.81,8.54,24.91,-0.11,-40.47,1
-0.02,-0.02,1.00,3.97,-3.11,9.34,24.77,-0.23,-39.39,1
-0.02,0.02,0.99,4.46,-2.87,7.63,24.63,0.29,-39.43,1
-0.03,-0.15,1.00,3.85,-3.23,-6.23,24.21,0.15,-40.11,1
-0.01,-0.02,0.99,3.85,-2.99,1.04,24.35,0.35,-40.14,1
0.04,0.09,0.99,1.71,-4.82,-10.99,23.72,-0.04,-40.10,1
-0.02,-0.02,1.00,3.36,-4.58,-2.26,23.54,-0.28,-40.33,1
-0.06,-0.02,1.00,2.08,-3.11,0.61,22.77,1.50,-40.41,1
-0.02,-0.01,1.00,3.91,-5.55,1.95,22.63,1.53,-39.94,1
-0.03,-0.02,1.00,3.97,-3.97,0.61,22.44,1.15,-40.59,1
-0.04,-0.03,1.00,3.91,-8.24,0.49,21.55,1.73,-39.66,1
-0.01,0.01,0.99,3.42,-6.71,1.95,21.51,1.78,-40.21,1
-0.05,-0.05,1.00,-1.04,-9.34,4.70,21.40,2.39,-39.97,1
-0.02,0.01,1.00,3.97,-7.93,6.90,20.95,2.14,-40.21,1
-0.02,-0.02,1.00,16.85,-2.69,6.16,20.92,2.71,-40.71,1
-0.06,-0.07,0.99,14.65,0.06,1.10,20.64,2.91,-40.82,1
-0.06,-0.08,0.98,20.39,2.38,3.05,21.02,3.45,-39.11,1
-0.04,-0.07,0.99,7.87,5.98,6.65,21.04,3.87,-40.08,1
0.00,-0.07,1.03,-3.78,13.12,5.74,21.94,3.58,-39.15,1
0.00,-0.10,0.97,1.28,5.74,5.98,21.77,3.92,-39.95,1
0.03,-0.05,1.00,-8.61,-1.77,0.12,21.08,4.04,-40.10,1
0.08,-0.19,0.95,-16.24,2.32,16.36,21.91,2.82,-40.17,1
-0.05,0.04,1.00,-15.44,-9.46,10.56,21.63,2.00,-40.48,1
-0.02,-0.02,1.00,9.34,-15.63,7.81,21.79,2.27,-40.63,1
-0.02,-0.01,0.99,8.36,-8.85,1.10,21.64,3.28,-39.92,1
-0.03,-0.01,0.99,22.34,-3.36,4.64,20.98,2.76,-39.38,1
-0.03,-0.05,1.00,11.47,-7.93,7.02,21.17,3.00,-39.33,1
-0.04,-0.04,0.98,12.51,-21.55,17.09,21.22,3.87,-39.05,1
-0.04,-0.04,1.00,14.34,-2.50,-1.83,20.98,3.25,-39.32,1
-0.04,-0.05,0.99,-2.75,-3.30,0.37,21.12,2.82,-40.67,1
-0.06,-0.04,1.00,-3.42,-4.64,-0.18,21.68,2.89,-40.05,1
-0.04,-0.02,0.99,-4.70,-2.69,-2.99,22.17,2.45,-39.82,1
-0.05,-0.02,1.00,-10.68,-4.15,-0.18,21.85,1.61,-40.21,1
-0.05,-0.01,1.00,-7.81,-3.48,0.85,22.17,1.39,-40.89,1
-0.04,0.01,1.00,-5.80,-2.50,0.98,22.03,0.60,-40.76,1
-0.05,0.02,1.00,-6.59,-2.44,0.18,22.19,1.07,-40.60,1
-0.04,0.03,0.99,-4.70,-2.08,2.62,22.33,0.32,-40.54,1
-0.04,0.04,0.99,-5.25,-0.49,2.93,22.20,0.18,-40.31,1
-0.04,0.05,1.00,-11.17,2.93,6.71,21.69,0.70,-40.82,1
-0.04,0.07,0.98,-15.26,5.43,9.46,22.18,0.17,-40.55,1
-0.02,0.07,0.99,7.39,4.33,4.52,22.39,-0.02,-41.27,1
-0.03,0.07,0.98,9.95,2.01,3.78,22.29,0.26,-40.38,1
-0.02,0.06,1.00,6.71,3.85,4.09,22.00,0.52,-41.56,1
-0.01,0.06,1.01,9.09,2.50,0.12,22.53,0.22,-40.54,1
0.00,0.06,0.99,-2.26,5.80,5.37,23.00,0.54,-41.13,1
-0.00,0.08,1.00,1.65,4.52,4.33,23.46,-0.12,-40.19,1
0.01,0.07,0.99,3.11,0.98,0.61,23.22,-0.18,-40.32,1
0.01,0.07,0.99,-0.31,2.75,3.17,23.32,-0.45,-40.92,1
0.02,0.08,1.00,3.36,1.40,3.60,24.02,-0.59,-41.15,1
0.02,0.08,0.99,7.57,1.34,0.92,23.91,-0.42,-41.28,1
0.03,0.07,1.00,4.27,1.28,1.83,24.12,-0.60,-41.31,1
0.03,0.07,0.99,2.81,2.62,0.55,24.37,-0.01,-41.11,1
0.04,0.08,0.99,5.13,-0.06,0.00,24.49,-0.28,-41.43,1
0.04,0.07,0.99,6.16,0.37,-1.22,24.77,-0.33,-40.39,1
0.05,0.07,0.98,7.39,0.43,-0.73,25.54,-0.18,-40.10,1
0.05,0.06,0.99,7.69,0.37,-1.28,25.60,-0.04,-40.15,1
0.05,0.06,0.99,6.71,-1.16,-0.73,25.77,-0.44,-41.11,1
0.06,0.06,0.99,9.09,-1.77,0.12,25.94,-0.18,-38.85,1
0.06,0.05,0.99,7.26,-2.44,-0.43,25.98,-0.45,-40.39,1
0.06,0.05,0.99,8.18,-2.14,-0.49,25.32,-0.59,-39.70,1
0.06,0.04,0.99,8.85,-4.52,0.49,25.29,0.02,-40.45,1
0.06,0.03,0.99,10.80,-3.30,-0.61,25.67,0.12,-40.98,1
0.06,0.03,0.99,8.12,-4.27,-0.73,25.90,0.93,-39.62,1
0.06,0.03,0.99,9.22,-4.27,-0.49,25.56,-0.34,-39.92,1
0.06,0.02,0.99,10.80,-4.70,-0.49,25.87,0.12,-40.01,1
0.05,0.01,1.00,12.45,-4.82,0.18,26.25,0.46,-40.36,1
0.05,0.01,0.99,18.86,-5.31,-0.73,25.62,0.95,-40.88,1
0.05,-0.02,1.00,32.53,-7.08,-2.38,26.33,1.17,-39.95,1
0.04,-0.05,0.99,27.10,-8.73,-2.93,26.75,1.18,-38.54,1
0.03,-0.08,0.98,27.22,-10.86,-0.85,26.35,1.39,-38.92,1
0.03,-0.09,0.99,19.29,-7.87,0.06,26.48,2.51,-38.79,1
0.03,-0.09,0.99,8.00,-5.55,0.67,25.77,2.10,-38.40,1
0.02,-0.11,0.99,8.85,-5.98,2.20,25.37,2.08,-38.42,1
0.02,-0.11,1.00,14.10,-6.59,2.62,25.20,2.71,-38.32,1
0.02,-0.13,0.99,16.54,-6.41,1.59,24.94,3.39,-38.27,1
0.01,-0.14,0.98,20.69,-7.75,2.08,24.60,3.97,-38.88,1
0.01,-0.15,0.98,6.10,-5.13,1.59,24.16,3.92,-38.21,1
0.01,-0.15,0.99,9.77,-8.06,2.44,24.05,4.75,-37.73,1
0.02,-0.16,0.99,5.49,-8.61,4.64,23.85,4.59,-37.56,1
-0.00,-0.14,1.03,2.69,-9.70,3.36,23.39,5.64,-37.07,1
-0.00,-0.17,0.98,8.00,-10.19,7.63,23.13,5.26,-37.74,1
-0.02,-0.17,0.98,-0.24,-13.49,4.21,22.72,5.22,-38.17,1
-0.04,-0.15,0.98,5.31,-12.15,2.08,22.18,6.04,-37.16,1
-0.04,-0.15,0.98,-1.40,-10.56,0.79,21.66,6.24,-37.77,1
-0.05,-0.15,0.99,0.79,-9.46,1.59,21.39,6.18,-38.51,1
-0.05,-0.16,0.98,1.89,-6.53,1.04,21.51,6.73,-38.05,1
-0.06,-0.14,0.99,0.79,-9.77,2.87,20.97,7.13,-38.53,1
-0.06,-0.15,0.98,0.24,-8.18,0.55,20.52,6.59,-38.53,1
-0.06,-0.13,0.99,-2.26,-6.65,2.01,20.57,6.42,-38.45,1
-0.08,-0.14,0.98,3.48,-16.78,-0.18,19.96,6.03,-38.21,1
-0.08,-0.13,0.99,-6.47,-8.61,-0.18,20.24,6.29,-39.67,1
-0.09,-0.12,0.99,-11.84,-10.56,-1.10,20.35,4.97,-37.99,1
-0.10,-0.10,0.99,-8.36,-10.13,1.28,20.31,4.60,-38.81,1
-0.10,-0.08,1.00,-11.84,-9.34,-0.18,21.04,4.32,-39.45,1
-0.11,-0.07,0.98,-8.18,-10.19,0.24,21.02,3.53,-39.50,1
-0.12,-0.06,0.98,-10.31,-6.53,1.34,21.17,2.09,-39.73,1
-0.12,-0.07,0.96,-7.32,-4.27,2.75,21.45,1.56,-38.71,1
-0.12,-0.02,0.98,-10.07,-4.03,1.59,21.59,1.92,-39.88,1
-0.12,-0.02,0.99,-11.84,0.00,1.53,21.52,0.98,-40.23,1
-0.12,-0.00,0.98,-5.43,-2.87,1.10,22.19,0.51,-40.23,1
-0.12,0.01,1.00,-14.71,2.44,-0.24,21.91,-0.70,-40.55,1
-0.11,0.04,0.98,-23.19,0.00,-0.24,21.86,-0.22,-40.75,1
-0.11,0.08,0.99,-29.91,4.27,1.04,22.22,-2.03,-41.47,1
-0.10,0.10,0.98,-23.50,2.56,0.49,22.18,-1.60,-41.44,1
-0.10,0.12,0.99,-20.26,2.75,3.11,22.01,-2.42,-41.71,1
-0.09,0.16,0.98,-20.26,2.62,5.43,22.03,-2.32,-42.04,1
-0.09,0.16,0.98,-4.27,-1.65,0.79,21.91,-3.54,-42.71,1
-0.08,0.17,0.97,-10.50,0.43,2.44,22.16,-3.12,-42.27,1
-0.08,0.19,0.98,-6.35,0.55,1.71,22.08,-3.91,-41.78,1
-0.08,0.19,0.97,1.46,1.22,1.65,22.19,-3.96,-41.44,1
-0.07,0.21,0.98,-4.33,6.53,1.46,22.12,-4.03,-42.13,1
-0.06,0.20,0.96,12.88,9.58,0.18,22.94,-4.00,-42.58,1
-0.05,0.19,0.96,15.32,22.09,1.22,22.80,-3.47,-43.07,1
-0.03,0.18,0.97,13.06,17.33,1.22,23.44,-2.53,-41.11,1
-0.00,0.18,0.99,10.25,12.94,-1.71,24.02,-2.62,-41.76,1
0.02,0.15,0.98,8.42,17.70,-3.17,24.32,-2.72,-41.52,1
0.04,0.15,0.98,7.08,11.96,-1.16,25.48,-2.70,-41.82,1
0.05,0.16,0.98,6.96,6.84,-1.28,25.72,-2.34,-41.36,1
0.06,0.15,0.98,7.75,10.01,-3.72,25.85,-2.16,-41.02,1
0.07,0.15,0.98,14.95,4.03,-2.81,25.78,-2.81,-40.84,1
0.10,0.13,0.96,20.75,20.45,-9.09,26.78,-2.09,-40.59,1
0.11,0.12,0.99,10.19,7.63,-5.43,27.15,-1.38,-40.09,1
0.12,0.09,0.97,17.94,14.28,-2.44,27.19,-1.59,-41.06,1
0.14,0.11,0.98,3.54,3.91,1.77,27.28,-1.66,-40.11,1
0.14,0.10,0.97,7.14,-2.32,0.61,27.69,-1.06,-40.89,1
0.14,0.09,0.99,13.92,-1.28,-1.77,27.83,-1.55,-40.42,1
0.14,0.08,0.97,15.81,-1.10,-0.73,27.65,-0.92,-40.16,1
0.15,0.08,0.98,18.55,-2.14,-3.36,28.00,-1.29,-39.47,1
0.15,0.05,0.99,18.37,-1.59,-3.97,28.02,-0.57,-40.48,1
0.15,0.06,0.99,19.84,-1.83,-5.49,28.27,-0.28,-40.19,1
0.15,0.00,0.97,22.03,-1.16,-6.29,28.54,0.24,-39.66,1
0.15,-0.01,0.98,20.32,-3.66,-2.26,28.26,1.27,-40.15,1
0.15,-0.01,0.99,16.17,-5.43,-0.73,28.10,1.51,-39.72,1
0.15,-0.04,0.97,21.85,-6.23,-1.65,28.30,1.37,-38.59,1
0.15,-0.05,0.98,25.45,-6.41,-2.81,27.91,1.59,-39.04,1
0.14,-0.08,0.99,26.43,-13.12,-2.08,27.98,2.19,-37.84,1
0.13,-0.10,0.98,37.29,-15.14,-4.70,27.27,3.25,-37.87,1
0.12,-0.13,0.99,21.85,-14.71,-0.67,27.51,3.04,-38.15,1
0.10,-0.17,0.98,37.29,-17.58,-3.85,26.82,4.22,-37.77,1
0.08,-0.19,0.97,29.91,-19.23,-1.46,26.44,5.15,-36.06,1
0.07,-0.21,0.98,31.74,-15.81,-3.66,25.93,6.04,-36.19,1
0.05,-0.25,0.96,31.98,-21.12,-8.06,25.40,7.09,-36.47,1
0.03,-0.27,0.98,22.71,-17.64,-4.82,24.19,7.30,-35.99,1
0.02,-0.27,0.95,15.14,-18.07,-2.32,24.71,8.35,-35.16,1
0.00,-0.29,0.98,9.34,-18.31,0.06,23.65,7.63,-35.27,1
0.00,-0.29,0.95,6.10,-6.71,2.50,23.72,8.02,-35.50,1
-0.01,-0.28,0.96,-8.30,-10.44,3.11,23.22,8.22,-35.63,1
-0.01,-0.27,0.96,-4.82,-11.11,3.48,22.61,8.57,-35.17,1
-0.02,-0.25,0.97,-13.43,-12.51,3.97,22.02,8.59,-36.61,1
-0.03,-0.23,0.97,-25.63,-14.59,2.56,21.79,8.18,-36.43,1
-0.04,-0.20,0.99,-22.95,-22.46,2.44,20.81,7.36,-37.12,1
-0.08,-0.16,0.97,-22.16,-26.79,1.65,20.40,6.85,-37.90,1
-0.09,-0.15,0.97,-18.07,-16.60,2.01,19.53,6.71,-37.35,1
-0.10,-0.13,0.98,-17.27,-11.29,1.83,19.65,6.64,-38.70,1
-0.10,-0.11,0.98,-20.32,-9.22,-2.56,19.70,6.24,-38.00,1
-0.11,-0.09,0.98,-11.35,-9.83,0.31,19.86,5.04,-38.27,1
-0.12,-0.07,0.99,-11.35,-5.62,0.79,19.87,4.08,-38.16,1
-0.13,-0.05,0.99,-14.59,-6.53,-0.24,19.56,3.96,-39.05,1
-0.12,-0.04,0.98,-19.17,-6.41,0.12,20.23,2.83,-39.89,1
-0.11,-0.00,0.99,-24.96,-2.69,-2.32,20.21,1.03,-40.47,1
-0.13,0.02,0.99,-22.03,-3.36,-3.17,20.73,0.74,-39.82,1
-0.13,0.07,0.99,-51.03,5.07,-1.10,20.43,0.04,-40.82,1
-0.12,0.12,0.97,-46.45,4.15,0.73,20.20,-1.76,-42.07,1
-0.10,0.16,0.96,-35.52,6.71,0.98,19.96,-2.77,-42.30,1
-0.10,0.19,0.96,-11.78,2.44,1.34,20.59,-2.86,-41.33,1
-0.09,0.21,0.95,-7.75,3.85,0.06,20.39,-3.78,-41.81,1
-0.09,0.21,0.98,-6.23,1.71,2.75,20.65,-3.64,-42.44,1
-0.08,0.24,0.96,-11.41,5.55,3.91,20.79,-3.67,-42.37,1
-0.08,0.23,0.95,-5.62,1.83,2.01,21.41,-4.21,-41.36,1
-0.07,0.24,0.96,13.61,7.26,-4.09,21.17,-4.31,-41.35,1
-0.06,0.22,0.96,31.68,5.68,-2.14,21.72,-3.47,-41.70,1
-0.04,0.17,0.98,40.59,18.25,3.66,21.80,-2.34,-42.29,1
-0.02,0.16,0.99,16.66,18.98,-4.09,21.98,-2.08,-41.69,1
0.01,0.14,0.97,17.70,22.52,-0.67,23.19,-1.73,-42.03,1
0.03,0.12,1.00,24.84,22.03,-2.32,23.83,-0.90,-41.54,1
0.05,0.12,0.99,23.62,23.50,-7.39,24.54,-0.22,-40.32,1
0.07,0.08,1.00,21.97,16.11,-2.14,25.54,-0.10,-40.38,1
0.10,0.05,0.97,26.00,22.64,-4.33,25.38,0.34,-41.37,1
0.12,0.04,0.98,17.82,13.43,-0.85,25.18,2.09,-39.32,1
0.13,0.02,0.99,17.82,7.87,-2.87,25.98,1.37,-39.11,1
0.14,0.02,0.97,5.49,-2.01,0.31,26.32,1.88,-39.36,1
0.14,0.02,0.97,6.23,1.16,-2.93,26.59,2.20,-38.93,1
0.15,0.01,1.00,8.54,-7.32,-0.43,26.27,2.61,-38.96,1
0.14,0.01,0.96,1.83,-7.14,-2.99,26.60,2.12,-40.16,1
0.13,0.02,1.00,4.76,-10.68,-0.79,25.84,1.88,-39.58,1
0.13,0.01,0.98,9.22,-10.68,-3.17,25.68,1.55,-38.45,1
0.12,0.00,0.98,10.07,-8.18,1.34,26.54,2.26,-39.20,1
0.11,0.00,0.99,6.10,-11.11,1.46,25.61,2.16,-39.39,1
0.11,0.00,0.98,3.54,-6.59,-0.18,25.68,1.99,-38.88,1
0.10,-0.01,0.99,1.89,-8.42,1.22,25.45,1.88,-38.43,1
0.10,-0.01,0.99,8.48,-8.91,2.20,25.81,2.49,-38.56,1
0.09,-0.00,1.00,3.54,-7.20,-0.37,25.16,2.05,-39.14,1
0.09,-0.01,0.99,6.84,-9.77,-1.71,24.83,2.22,-39.22,1
0.08,-0.01,1.00,0.12,-11.54,1.53,24.93,2.20,-39.33,1
0.06,-0.02,0.99,11.05,-16.30,2.81,24.69,2.56,-40.04,1
0.06,-0.01,1.00,8.18,-13.00,2.26,24.23,2.21,-38.55,1
0.05,-0.03,0.98,11.84,-16.78,2.38,24.22,2.87,-39.45,1
0.03,-0.02,1.01,2.50,-14.40,2.01,23.40,2.28,-39.75,1
0.02,-0.03,0.99,14.40,-19.78,1.16,23.71,2.67,-38.53,1
-0.00,-0.03,0.98,4.88,-22.40,2.26,22.45,2.84,-38.87,1
-0.02,-0.04,1.00,1.65,-27.71,8.48,22.41,2.59,-39.78,1
-0.05,-0.04,1.00,13.24,-25.33,4.39,21.98,2.95,-39.62,1
-0.08,-0.04,0.96,1.46,-21.61,6.53,21.66,2.99,-38.82,1
-0.09,-0.05,0.99,4.46,-12.76,2.14,20.69,3.06,-39.61,1
-0.10,-0.04,1.00,3.66,-17.46,2.01,20.76,2.81,-39.56,1
-0.13,-0.05,0.98,15.32,-25.02,0.85,20.20,3.05,-38.15,1
-0.14,-0.05,1.01,-3.91,-12.39,3.30,20.30,3.36,-39.06,1
-0.16,-0.06,0.99,0.73,-13.79,1.28,19.76,3.05,-39.45,1
-0.15,-0.04,0.97,2.38,-9.46,2.56,19.48,2.49,-39.45,1
-0.16,-0.06,0.99,4.76,-10.62,2.99,18.95,3.08,-39.07,1
-0.18,-0.05,0.98,0.55,-11.11,2.81,18.85,3.34,-39.69,1
-0.19,-0.05,0.97,2.69,-8.54,2.08,18.82,3.11,-39.31,1
-0.18,-0.05,0.97,0.61,-4.33,1.16,18.52,3.16,-39.20,1
-0.18,-0.04,0.98,1.28,-2.99,1.16,19.08,2.83,-39.67,1
-0.18,-0.04,0.98,2.75,-5.19,1.89,18.84,2.76,-40.34,1
-0.18,-0.04,0.97,4.27,-4.82,1.04,18.96,2.83,-39.60,1
-0.19,-0.03,0.98,1.71,-3.78,2.20,19.06,3.16,-40.14,1
-0.18,-0.04,0.98,3.60,-3.05,0.73,19.02,3.06,-40.83,1
-0.18,-0.03,0.98,3.72,-3.78,1.71,18.84,2.67,-40.45,1
-0.19,-0.04,0.98,3.48,-3.36,2.20,19.09,2.82,-39.37,1
-0.18,-0.04,0.98,1.71,-1.77,2.26,18.62,2.78,-39.14,1
-0.18,-0.03,0.97,4.21,-4.52,1.59,18.71,2.56,-39.32,1
-0.18,-0.03,0.98,2.38,-2.44,0.31,18.76,2.47,-40.43,1
-0.19,-0.03,0.97,4.33,-4.21,1.16,18.51,2.78,-39.81,1
-0.18,-0.03,0.98,2.26,-2.14,0.92,18.48,2.64,-39.09,1
-0.18,-0.03,0.98,3.97,-3.23,1.34,18.18,2.45,-39.62,1
-0.18,-0.03,0.98,2.50,-2.75,0.85,18.48,2.67,-39.65,1
-0.19,-0.03,0.98,3.42,-3.78,1.65,18.91,2.05,-40.56,1
-0.18,-0.03,0.98,2.38,-2.81,0.85,18.88,2.83,-40.06,1
-0.18,-0.03,0.97,2.87,-3.36,0.43,18.53,3.05,-40.03,1
-0.18,-0.03,0.97,5.13,-3.72,1.16,18.87,2.77,-40.26,1
-0.18,-0.03,0.98,4.39,-2.50,0.37,18.52,2.60,-39.64,1
-0.18,-0.03,0.97,3.66,-3.23,0.43,18.57,2.49,-40.76,1
-0.18,-0.03,0.98,2.32,-2.44,1.46,18.38,2.91,-40.50,1
-0.18,-0.03,0.98,3.78,-3.42,0.61,18.88,3.11,-39.50,1
-0.18,-0.03,0.98,3.17,-2.81,0.55,18.80,2.55,-40.54,1
-0.18,-0.03,0.97,4.94,-4.58,0.98,18.48,2.98,-40.14,1
-0.18,-0.03,0.98,2.75,-2.56,0.61,18.53,3.11,-38.95,1
-0.18,-0.03,0.98,3.60,-3.17,0.92,19.12,3.52,-39.88,1
-0.18,-0.03,0.98,3.11,-3.30,1.22,18.84,3.17,-40.53,1
-0.18,-0.03,0.98,3.36,-2.26,0.98,18.52,2.72,-39.77,1
-0.18,-0.03,0.97,4.39,-3.30,1.16,18.66,2.76,-39.60,1
-0.18,-0.03,0.98,3.05,-2.26,0.67,18.31,3.06,-39.59,1
-0.18,-0.03,0.97,3.36,-3.66,0.85,18.13,2.94,-39.58,1
-0.18,-0.03,0.98,3.30,-2.50,1.46,18.29,2.62,-39.87,1
-0.18,-0.03,0.98,5.74,-3.05,0.55,18.58,3.25,-40.55,1
-0.18,-0.03,0.98,3.05,-3.30,1.10,18.55,3.04,-39.73,1
-0.18,-0.03,0.98,3.11,-1.40,2.20,18.73,3.39,-40.17,1
-0.18,-0.03,0.97,5.13,-2.62,0.73,18.37,3.06,-38.78,1
-0.18,-0.03,0.98,2.93,-0.79,-0.12,18.30,3.31,-39.70,1
-0.17,-0.03,0.98,4.27,1.71,0.18,18.62,2.62,-39.88,1
-0.17,-0.04,0.97,6.65,0.85,1.34,18.95,2.94,-40.75,1
-0.17,-0.03,0.99,2.93,5.98,6.04,19.14,2.34,-39.92,1
-0.15,-0.02,0.97,-2.62,6.23,1.40,19.75,2.45,-40.09,1
-0.15,-0.05,1.02,-6.53,13.24,4.27,20.40,2.16,-39.26,1
-0.13,-0.00,0.99,-10.74,16.54,0.49,20.63,1.48,-39.37,1
-0.10,0.00,0.99,-0.31,23.38,4.52,21.04,1.77,-40.21,1
-0.08,0.02,1.00,1.16,17.27,1.59,22.16,1.35,-40.23,1
-0.05,0.02,0.96,-2.99,21.18,-0.06,22.34,1.62,-39.65,1
-0.04,0.03,1.01,3.36,18.74,-3.23,22.58,1.65,-39.42,1
-0.01,-0.00,0.98,14.28,21.00,-2.20,23.57,1.64,-39.50,1
0.01,0.02,1.00,6.04,11.96,-0.73,24.10,1.23,-40.30,1
0.03,0.01,0.99,13.06,18.74,-0.37,24.98,2.00,-39.60,1
0.05,-0.01,0.97,7.81,19.35,-0.12,24.95,2.31,-40.41,1
0.07,-0.00,1.03,-1.16,17.03,0.98,25.38,1.97,-39.89,1
0.09,-0.00,0.95,-3.30,17.94,0.06,26.10,1.98,-39.10,1
0.11,0.03,0.97,-20.63,14.89,1.04,27.21,1.68,-40.10,1
0.13,0.04,0.99,-4.70,10.31,0.24,26.73,0.85,-38.73,1
0.13,0.05,0.96,-6.53,10.44,1.34,27.65,0.45,-39.78,1
0.16,0.06,0.98,-4.88,10.13,1.34,28.47,-0.51,-39.71,1
0.17,0.06,1.00,9.52,6.53,-0.31,28.63,-0.26,-39.84,1
0.18,0.06,0.97,1.89,2.14,0.79,28.16,-0.63,-39.71,1
0.18,0.07,0.97,4.88,5.80,-1.46,28.89,-0.04,-39.64,1
0.19,0.06,0.97,7.39,1.04,-0.79,29.25,-0.72,-39.11,1
0.20,0.06,0.97,1.46,0.43,1.89,28.47,0.39,-39.61,1
0.20,0.07,0.97,3.17,-1.65,1.53,28.81,0.28,-39.38,1
0.20,0.06,0.96,5.80,-2.87,-1.16,28.87,-0.51,-39.59,1
0.20,0.07,0.97,-4.39,-0.06,-0.43,29.03,-0.52,-40.09,1
0.20,0.07,0.97,-1.77,-2.20,0.85,29.03,-1.12,-39.21,1
0.20,0.09,0.96,1.65,-2.26,0.92,29.90,-1.01,-39.93,1
0.20,0.08,0.97,3.85,-2.87,0.98,29.26,-1.84,-39.54,1
0.20,0.08,0.97,8.24,-3.36,0.79,29.82,-1.04,-39.82,1
0.20,0.08,0.97,8.97,-3.72,2.20,29.26,-1.01,-38.99,1
0.20,0.08,0.96,2.56,-2.01,2.20,29.69,-1.95,-39.29,1
0.20,0.08,0.96,4.39,-4.09,1.10,29.77,-1.61,-39.23,1
0.20,0.08,0.97,6.16,-2.56,1.65,29.64,-1.39,-39.47,1
0.20,0.07,0.97,4.94,-3.42,0.43,29.79,-1.46,-39.75,1
0.20,0.08,0.96,5.86,-2.32,1.22,29.47,-1.55,-39.37,1
0.20,0.07,0.97,11.66,-2.26,1.71,29.46,-0.98,-38.45,1
0.21,0.07,0.97,5.98,-0.49,0.98,29.25,-1.06,-37.52,1
0.20,0.06,0.98,2.56,-3.48,0.79,29.85,-1.15,-38.78,1
0.20,0.06,0.96,7.63,-2.56,1.77,29.80,-0.88,-38.68,1
0.21,0.07,0.97,2.32,-3.11,2.56,29.74,-0.99,-38.50,1
0.21,0.06,0.96,6.59,-2.87,1.34,29.86,-0.62,-39.10,1
0.21,0.06,0.97,-0.37,-3.72,2.32,29.68,-1.09,-38.34,1
0.20,0.07,0.96,2.62,-3.11,1.22,30.26,-0.39,-38.49,1
0.20,0.07,0.97,1.04,-3.60,2.69,29.96,-0.71,-38.33,1
0.20,0.07,0.96,6.16,-3.48,2.20,29.72,-0.96,-39.20,1
0.20,0.06,0.97,6.16,-3.85,2.93,29.81,-1.37,-39.36,1
0.20,0.07,0.97,3.54,-3.97,2.99,29.46,-1.39,-38.55,1
0.20,0.06,0.97,5.37,-6.16,2.44,29.64,-0.73,-38.65,1
0.19,0.06,0.97,3.05,-6.47,5.13,28.81,-1.07,-39.75,1
0.20,0.07,0.98,4.39,-6.23,3.97,29.13,-0.28,-39.84,1
0.19,0.06,0.97,6.84,-6.41,1.65,28.94,-0.61,-39.61,1
0.19,0.06,0.97,4.82,-4.21,2.20,29.87,-0.60,-38.57,1
0.19,0.06,0.98,8.18,-6.04,2.20,29.26,-0.70,-39.37,1
0.19,0.05,0.97,5.19,-2.01,0.24,28.74,0.09,-38.83,1
0.19,0.05,0.98,4.33,-4.64,1.59,28.71,-0.68,-38.88,1
0.19,0.05,0.97,4.82,-2.62,0.12,29.11,-0.31,-38.56,1
0.18,0.05,0.97,0.79,-3.97,1.65,28.94,-0.51,-38.98,1
0.18,0.06,0.97,4.39,-3.17,0.67,28.15,0.04,-39.49,1
0.18,0.05,0.97,3.17,-4.88,1.34,28.77,-0.52,-39.53,1
0.18,0.06,0.97,4.46,-5.07,1.53,29.10,-0.33,-39.16,1
0.18,0.06,0.97,2.93,-6.04,1.59,29.17,0.18,-40.34,1
0.17,0.06,0.97,0.61,-8.36,3.05,28.44,-0.22,-38.99,1
0.17,0.06,0.96,-3.85,-12.27,2.26,27.65,-0.43,-39.31,1
0.16,0.08,0.98,-4.88,-9.77,3.72,27.62,0.07,-38.98,1
0.15,0.08,0.98,2.01,-13.00,2.50,27.71,0.17,-40.10,1
0.13,0.07,0.97,-3.30,-15.99,5.49,27.34,-0.10,-40.21,1
0.13,0.13,1.03,-15.87,-14.89,1.28,26.34,-0.74,-40.14,1
0.11,0.14,0.98,-23.74,-14.59,0.49,26.25,-1.54,-40.12,1
0.09,0.15,0.97,-10.62,-15.01,2.81,26.04,-2.22,-41.38,1
0.07,0.17,0.97,0.12,-12.08,4.21,25.32,-2.38,-41.58,1
0.07,0.18,0.95,-18.07,-5.98,3.78,25.42,-2.87,-40.71,1
0.08,0.21,0.98,-26.92,-9.03,4.52,25.51,-4.03,-41.94,1
0.06,0.24,0.95,-34.48,-15.87,8.54,24.96,-4.82,-42.37,1
0.05,0.26,0.94,-26.61,-8.48,2.93,25.42,-5.75,-42.38,1
0.04,0.31,0.95,-39.49,-20.20,5.86,24.37,-6.52,-41.03,1
0.01,0.35,0.92,-43.46,-19.23,7.87,24.61,-7.47,-41.32,1
0.00,0.40,0.95,-21.48,-12.76,4.52,24.08,-9.55,-42.03,1
-0.01,0.43,0.87,-17.64,-7.81,0.98,24.08,-10.50,-42.48,1
-0.01,0.43,0.89,-13.31,-4.76,2.44,23.29,-10.40,-43.13,1
-0.01,0.44,0.88,-0.49,-6.47,0.79,23.80,-11.36,-43.01,1
-0.00,0.45,0.87,-11.17,-4.82,1.95,23.63,-11.98,-43.14,1
-0.01,0.46,0.87,1.65,-4.39,1.16,23.69,-10.85,-42.08,1
-0.01,0.46,0.87,-3.05,-3.85,0.18,23.54,-11.38,-42.35,1
-0.02,0.47,0.87,-2.87,-4.03,1.77,23.75,-11.99,-42.47,1
-0.02,0.47,0.86,4.76,-3.48,1.53,23.72,-12.32,-42.80,1
-0.02,0.47,0.87,2.75,-3.36,1.95,23.33,-11.84,-41.64,1
-0.02,0.47,0.87,7.63,-2.75,1.65,22.85,-11.87,-43.66,1
-0.02,0.46,0.87,8.97,-3.05,1.71,23.58,-11.45,-42.24,1
-0.02,0.47,0.86,2.44,-3.42,0.92,23.36,-11.39,-41.76,1
-0.02,0.46,0.87,7.81,-3.30,1.22,23.30,-11.52,-41.27,1
-0.02,0.47,0.87,2.01,-2.87,0.98,23.40,-11.41,-41.98,1
-0.02,0.47,0.87,4.39,-3.36,0.67,23.50,-11.76,-42.82,1
-0.02,0.47,0.87,3.85,-3.11,0.67,23.41,-12.08,-42.66,1
-0.02,0.47,0.86,-1.10,-2.69,1.46,23.47,-11.94,-42.49,1
-0.02,0.47,0.86,-0.92,-3.17,0.92,23.32,-11.96,-42.74,1
-0.02,0.47,0.86,1.22,-2.75,1.77,23.80,-11.94,-41.52,1
-0.02,0.47,0.86,-0.24,-3.36,1.65,23.43,-11.65,-41.49,1
-0.02,0.48,0.86,5.80,-2.93,1.83,23.57,-12.38,-41.50,1
-0.02,0.48,0.86,3.42,-1.40,2.32,23.66,-12.48,-41.98,1
-0.02,0.48,0.86,5.25,-3.42,0.98,23.62,-12.46,-42.75,1
-0.02,0.47,0.86,6.41,-2.69,1.34,23.18,-12.24,-41.00,1
-0.02,0.47,0.86,3.54,-2.50,0.98,23.68,-12.18,-42.49,1
-0.02,0.47,0.86,1.34,-1.65,1.46,23.99,-12.49,-42.36,1
-0.02,0.47,0.87,9.46,-2.26,0.79,24.13,-11.71,-41.87,1
-0.01,0.47,0.87,-0.12,-2.32,1.71,23.74,-11.71,-43.14,1
-0.01,0.47,0.86,3.66,-3.91,0.92,23.85,-11.56,-41.67,1
-0.02,0.47,0.86,2.93,-2.81,2.01,23.79,-12.33,-41.85,1
-0.01,0.47,0.87,2.32,-3.48,1.34,23.47,-11.93,-41.44,1
-0.02,0.47,0.86,2.26,-3.23,1.46,23.29,-11.91,-42.37,1
-0.02,0.47,0.86,2.75,-3.48,1.28,23.74,-11.82,-42.54,1
-0.02,0.48,0.86,2.56,-3.42,1.46,23.71,-12.28,-42.79,1
-0.02,0.47,0.86,0.73,-2.87,1.59,23.34,-11.58,-42.07,1
-0.02,0.48,0.86,2.62,-2.87,1.46,23.54,-12.39,-41.66,1
-0.02,0.48,0.87,3.11,-3.11,1.04,23.93,-13.07,-42.31,1
-0.02,0.48,0.86,1.71,-3.05,1.46,23.61,-12.71,-41.44,1
-0.02,0.48,0.86,4.58,-3.11,1.10,24.22,-12.12,-41.82,1
-0.02,0.48,0.86,3.85,-3.42,0.85,23.34,-12.84,-41.82,1
-0.02,0.48,0.86,5.49,-2.93,1.10,23.38,-12.70,-42.69,1
-0.02,0.48,0.86,3.78,-3.17,0.79,23.68,-12.62,-42.33,1
-0.02,0.48,0.86,3.78,-3.17,1.04,23.43,-12.99,-42.27,1
-0.02,0.48,0.87,5.55,-2.93,1.16,23.27,-12.60,-42.52,1
-0.01,0.48,0.86,1.65,-2.75,1.46,23.24,-12.40,-42.70,1
-0.02,0.48,0.86,6.10,-2.93,1.34,23.71,-11.74,-42.44,1
-0.01,0.48,0.86,2.56,-3.05,1.10,23.51,-11.74,-42.66,1
-0.02,0.48,0.86,7.51,-3.42,0.61,24.28,-11.95,-41.87,1
-0.01,0.48,0.86,7.39,-2.87,0.49,23.52,-11.71,-42.33,1
-0.02,0.47,0.87,9.34,-2.93,0.67,23.30,-12.38,-41.98,1
-0.01,0.47,0.87,15.63,-3.36,-1.34,23.85,-11.74,-42.25,1
-0.01,0.44,0.88,22.95,-4.21,-0.37,22.91,-10.60,-41.94,1
-0.02,0.44,0.89,24.48,-0.98,1.34,23.16,-10.29,-42.97,1
-0.01,0.40,0.90,48.28,-3.66,-2.08,22.95,-9.18,-41.99,1
-0.02,0.35,0.91,63.84,-2.01,-4.33,22.39,-7.23,-42.10,1
0.00,0.28,0.98,71.59,-1.53,-6.71,22.86,-4.91,-41.81,1
0.00,0.22,0.97,85.88,4.52,-16.42,22.90,-2.83,-42.86,1
0.00,0.14,0.99,77.94,0.43,-7.26,23.05,-1.01,-40.66,1
0.02,0.07,0.97,67.63,2.32,-8.48,23.13,1.05,-40.16,1
0.02,0.01,0.98,51.27,-8.48,-4.27,23.46,2.71,-39.99,1
0.03,-0.05,1.00,70.07,-3.54,-7.26,23.35,2.76,-38.78,1
0.02,-0.11,0.98,57.37,-7.87,-5.92,23.40,4.70,-37.96,1
0.01,-0.18,0.99,64.09,-11.84,-8.00,23.50,5.69,-38.12,1
0.00,-0.23,0.96,65.37,-8.36,-7.20,23.45,7.09,-36.39,1
-0.02,-0.31,0.95,65.00,-13.12,-7.81,22.96,8.73,-33.89,1
-0.01,-0.33,0.94,30.40,-3.85,-3.11,22.35,8.96,-34.38,1
-0.02,-0.36,0.93,23.68,-3.36,-0.12,22.91,9.62,-33.02,1
-0.02,-0.36,0.93,12.08,-4.03,0.92,22.94,9.66,-33.24,1
-0.02,-0.37,0.93,8.42,-2.75,0.67,22.52,10.47,-32.80,1
-0.02,-0.37,0.93,7.75,-4.09,1.83,22.17,10.50,-33.90,1
-0.02,-0.38,0.93,8.61,-3.85,1.46,22.46,10.35,-33.17,1
-0.02,-0.38,0.92,3.42,-3.78,0.79,22.18,10.40,-33.47,1
-0.02,-0.38,0.93,3.30,-3.48,1.46,22.47,10.44,-33.76,1
-0.02,-0.38,0.93,3.30,-3.48,1.40,22.08,10.41,-33.37,1
-0.02,-0.38,0.93,2.93,-3.54,0.73,22.08,10.52,-33.57,1
-0.02,-0.38,0.93,1.28,-3.30,1.04,22.24,11.00,-33.01,1
-0.02,-0.37,0.93,0.85,-3.48,1.34,21.97,11.05,-33.98,1
-0.02,-0.37,0.92,2.38,-3.66,1.46,21.77,10.95,-33.52,1
-0.02,-0.37,0.93,1.59,-3.60,1.95,22.06,10.69,-34.96,1
-0.02,-0.37,0.93,0.61,-3.36,1.59,21.86,10.82,-34.25,1
-0.02,-0.37,0.93,1.59,-2.87,1.59,22.64,10.22,-34.85,1
-0.02,-0.36,0.93,3.23,-3.48,1.22,21.94,9.73,-34.24,1
-0.02,-0.36,0.93,0.79,-3.05,1.34,21.92,10.38,-34.08,1
-0.02,-0.36,0.93,2.38,-3.60,1.04,22.09,10.33,-33.74,1
-0.02,-0.36,0.93,0.00,-3.11,0.73,22.30,10.45,-33.83,1
-0.02,-0.35,0.94,1.10,-3.36,0.79,21.72,10.10,-34.13,1
-0.02,-0.35,0.94,-2.08,-3.17,1.89,21.73,10.75,-34.88,1
-0.02,-0.35,0.93,1.71,-2.99,1.22,21.68,10.23,-34.70,1
-0.02,-0.34,0.94,0.31,-3.23,1.59,22.08,10.28,-35.03,1
-0.02,-0.34,0.94,1.83,-3.17,0.85,21.77,10.41,-33.96,1
-0.02,-0.34,0.94,0.24,-3.11,1.10,21.47,9.86,-34.33,1
-0.02,-0.33,0.94,0.61,-2.81,1.16,21.97,9.96,-33.67,1
-0.02,-0.33,0.94,1.16,-3.60,1.34,21.78,9.88,-35.34,1
-0.02,-0.33,0.95,0.85,-3.05,1.04,21.37,10.08,-34.27,1
-0.02,-0.33,0.94,1.53,-3.91,1.53,21.24,9.90,-34.59,1
-0.02,-0.33,0.95,-0.49,-2.99,1.28,21.68,9.95,-35.12,1
-0.02,-0.32,0.94,0.18,-3.66,1.77,21.50,10.17,-34.97,1
-0.02,-0.32,0.94,3.36,-3.91,1.40,21.98,9.72,-35.95,1
-0.03,-0.30,0.95,-9.28,-3.85,1.95,21.90,9.50,-35.06,1
-0.03,-0.30,0.95,-10.19,-5.68,2.50,21.39,9.29,-35.39,1
-0.02,-0.31,0.97,-19.17,-6.04,5.86,21.90,9.50,-35.69,1
-0.06,-0.26,0.98,-25.21,-6.23,3.97,22.44,7.82,-35.72,1
-0.03,-0.23,0.97,-16.05,-7.14,2.01,21.72,8.02,-36.94,1
-0.04,-0.21,0.97,-29.79,-9.40,3.23,21.63,7.20,-37.01,1
-0.06,-0.17,1.00,-25.15,-22.95,7.57,21.59,6.15,-38.04,1
-0.08,-0.09,0.96,-32.84,-24.78,3.97,21.13,5.30,-37.63,1
-0.09,-0.12,1.00,-25.02,-11.23,4.03,21.03,4.41,-38.50,1
-0.10,-0.08,0.98,-20.94,-18.98,2.81,20.58,3.33,-37.78,1
-0.13,-0.04,0.98,-31.80,-20.57,4.94,20.17,2.64,-38.16,1
-0.14,-0.02,0.99,-25.21,-13.55,2.87,19.84,2.19,-39.97,1
-0.14,0.02,0.97,-28.69,-16.48,6.35,19.47,1.67,-40.93,1
-0.16,0.05,1.01,-24.78,-12.15,2.50,18.91,1.66,-41.42,1
-0.18,0.07,0.98,-6.90,-19.53,5.86,18.59,0.79,-40.48,1
-0.18,0.06,0.97,-0.37,-14.95,5.31,17.94,0.89,-41.69,1
-0.20,0.07,0.98,-0.92,-15.63,2.69,18.03,-0.23,-40.71,1
-0.22,0.07,0.96,0.67,-17.58,7.63,17.58,0.72,-41.14,1
-0.23,0.08,0.96,-0.49,-4.82,1.28,18.19,-0.37,-41.86,1
-0.22,0.09,0.96,-1.59,-6.47,1.89,17.55,0.01,-40.63,1
-0.23,0.09,0.96,-3.05,-2.87,1.10,17.43,-0.17,-41.13,1
-0.24,0.10,0.97,-4.94,-3.66,-0.49,17.93,-1.04,-40.71,1
-0.22,0.11,0.95,0.37,-4.82,-1.04,17.59,-1.07,-41.77,1
-0.23,0.11,0.96,0.43,-3.23,1.22,17.71,-1.64,-40.41,1
-0.23,0.11,0.95,3.72,-4.09,1.77,17.05,-0.94,-42.44,1
-0.23,0.11,0.97,3.11,-2.50,0.92,17.55,-1.70,-41.41,1
-0.23,0.11,0.95,5.13,-2.81,1.53,17.43,-1.53,-41.52,1
-0.23,0.11,0.96,3.78,-2.81,0.00,17.31,-1.21,-41.15,1
-0.23,0.11,0.95,4.52,-3.66,1.95,17.44,-1.50,-40.81,1
-0.23,0.11,0.96,2.81,-1.95,0.73,17.53,-1.10,-42.07,1
-0.23,0.11,0.96,5.74,-3.72,1.77,17.44,-1.18,-41.21,1
-0.23,0.11,0.96,4.03,-2.20,0.49,17.54,-0.81,-41.30,1
-0.23,0.11,0.96,3.17,-3.60,0.98,17.46,-1.21,-40.41,1
-0.23,0.11,0.96,5.68,-1.89,0.55,17.68,-1.73,-41.19,1
-0.22,0.11,0.96,4.33,-2.32,0.98,17.49,-1.43,-41.33,1
-0.23,0.11,0.95,3.72,-0.92,0.12,18.01,-0.95,-41.58,1
-0.22,0.11,0.96,4.21,0.12,-0.67,17.55,-1.50,-40.78,1
-0.22,0.11,0.96,7.20,-0.67,0.37,17.70,-1.62,-40.98,1
-0.21,0.10,0.98,13.24,4.03,-1.16,17.68,-0.76,-41.43,1
-0.21,0.09,0.97,14.77,12.70,6.16,18.23,-1.27,-40.80,1
-0.20,0.09,0.97,13.92,15.08,3.48,19.27,-1.22,-40.82,1
-0.17,0.07,0.98,14.47,9.95,-0.24,18.86,-0.62,-41.93,1
-0.16,0.09,0.95,-3.78,15.20,6.10,19.35,-0.45,-41.54,1
-0.15,0.06,0.97,6.71,5.31,3.60,19.65,-0.27,-41.04,1
-0.14,0.06,0.98,1.40,8.54,-0.55,19.47,-0.16,-41.14,1
-0.13,0.07,1.00,5.68,9.64,0.43,20.26,-0.11,-41.47,1
-0.12,0.06,0.98,5.25,5.68,0.92,20.65,0.01,-40.09,1
-0.10,0.06,1.00,6.53,17.09,-1.34,20.70,0.74,-41.04,1
-0.08,0.06,1.00,3.11,25.09,-2.44,21.95,-0.12,-40.89,1
-0.05,0.05,1.04,8.30,38.33,2.81,22.16,-0.66,-40.16,1
-0.00,0.06,0.92,6.04,36.32,-1.10,23.86,-0.76,-39.43,1
0.02,0.07,0.99,9.28,2.38,0.24,23.80,0.71,-39.76,1
0.03,0.06,1.00,9.83,6.35,-0.92,24.19,-0.51,-39.17,1
0.03,0.06,0.99,0.98,14.40,-1.95,24.84,-0.18,-39.78,1
0.07,0.08,1.00,1.04,32.10,-5.55,25.05,-0.05,-39.33,1
0.09,0.07,1.00,9.58,4.52,-2.75,25.56,0.02,-39.06,1
0.10,0.04,0.98,10.86,8.85,-6.41,26.37,0.06,-39.94,1
0.12,0.04,0.97,4.09,10.80,-6.90,26.57,-0.11,-39.09,1
0.13,0.03,0.98,12.70,1.59,-3.17,26.93,-0.42,-39.10,1
0.12,0.04,0.99,6.77,3.54,-4.03,26.99,-0.18,-38.78,1
0.14,0.03,1.00,16.24,8.12,-6.41,27.28,1.43,-37.83,1
0.14,0.01,0.98,10.38,11.05,-5.55,27.15,1.29,-37.98,1
0.17,0.01,0.97,6.16,12.45,-2.87,27.80,0.65,-37.72,1
0.18,0.01,0.99,4.09,5.07,-1.53,27.86,1.70,-39.07,1
0.19,-0.00,0.97,6.23,12.88,-4.46,28.05,1.16,-38.95,1
0.21,0.00,0.97,4.76,10.38,-2.93,28.45,1.94,-38.11,1
0.20,-0.00,0.96,2.38,-3.42,1.65,28.41,1.57,-37.87,1
0.21,0.00,0.97,4.46,-1.59,2.01,28.19,1.42,-37.78,1
0.21,0.01,0.97,2.08,-1.83,1.04,28.23,1.51,-37.65,1
0.21,0.01,0.98,2.56,-1.77,-0.92,28.49,1.60,-38.13,1
0.21,-0.00,0.96,7.93,-0.12,-0.61,28.54,1.71,-38.34,1
0.22,0.00,0.98,5.43,-3.72,2.62,28.25,1.53,-38.85,1
0.21,-0.01,0.96,3.17,-3.42,2.01,28.45,1.34,-38.27,1
0.21,0.00,0.97,2.44,-5.37,2.99,28.63,1.79,-37.52,1
0.21,-0.00,0.97,5.74,-2.08,1.28,28.64,1.65,-38.53,1
0.21,0.00,0.97,1.95,-4.03,1.34,28.48,2.06,-38.28,1
0.21,0.00,0.97,5.49,-3.72,1.40,28.52,1.88,-38.44,1
0.21,0.00,0.97,0.18,-4.03,1.16,28.30,2.06,-38.95,1
0.21,0.00,0.97,4.27,-3.30,1.46,28.30,1.51,-39.54,1
0.21,0.00,0.97,1.83,-4.39,0.43,28.63,1.57,-38.20,1
0.21,0.00,0.97,1.46,-3.85,2.38,28.69,1.27,-38.49,1
0.21,0.01,0.97,3.66,-3.36,2.08,28.74,1.61,-38.43,1
0.21,0.01,0.97,2.93,-3.30,0.92,28.39,2.40,-38.05,1
0.21,0.01,0.97,-0.43,-5.43,1.65,28.41,1.83,-38.23,1
0.21,0.01,0.97,2.32,-3.78,1.59,28.55,1.54,-38.42,1
0.20,0.02,0.97,-6.65,-6.10,2.14,28.22,1.28,-38.55,1
0.20,0.03,0.98,-2.56,-4.03,1.65,27.60,1.22,-39.04,1
0.20,0.04,0.96,-12.76,-2.93,0.79,28.08,1.31,-38.10,1
0.18,0.08,0.98,-14.89,-1.83,4.82,27.92,0.24,-37.77,1
0.21,0.08,0.95,-22.83,-2.32,3.54,28.30,0.24,-38.70,1
0.20,0.11,0.96,-20.81,-8.00,4.33,27.93,0.11,-38.82,1
0.20,0.15,0.98,-11.90,-7.63,5.92,27.19,-0.60,-39.87,1
0.19,0.16,0.98,-21.24,-7.02,3.11,27.75,-1.27,-40.31,1
0.19,0.16,0.96,-5.86,-2.75,0.98,27.20,-1.89,-40.89,1
0.18,0.18,0.95,-21.00,-2.32,-0.49,27.00,-2.62,-40.52,1
0.18,0.21,0.95,-26.31,3.36,1.10,27.48,-3.23,-41.15,1
0.20,0.24,0.93,-18.07,3.54,-1.95,27.25,-4.00,-40.04,1
0.21,0.26,0.95,-48.52,15.38,-0.98,28.16,-4.19,-40.20,1
0.22,0.30,0.91,-32.90,7.93,5.49,28.58,-5.81,-40.61,1
0.23,0.34,0.89,-48.34,0.18,3.66,29.65,-7.67,-40.88,1
0.24,0.39,0.89,-25.45,-0.37,4.46,28.82,-8.59,-41.24,1
0.24,0.40,0.87,-8.91,-0.67,2.81,28.89,-9.27,-41.43,1
0.24,0.41,0.85,-26.86,-2.26,5.98,28.72,-9.92,-42.03,1
0.24,0.45,0.86,-22.09,-2.20,2.93,28.59,-10.14,-41.24,1
0.23,0.46,0.84,-3.54,-3.72,2.69,29.08,-10.63,-41.46,1
0.23,0.48,0.85,0.55,-3.78,2.32,29.59,-10.77,-41.20,1
0.23,0.47,0.83,-1.40,-3.42,1.77,29.76,-11.29,-40.47,1
0.23,0.47,0.84,3.05,-3.05,0.85,28.93,-11.23,-41.67,1
0.23,0.47,0.83,-0.98,-3.42,2.44,29.27,-11.73,-40.97,1
0.23,0.48,0.83,0.24,-3.23,2.14,28.86,-11.68,-40.83,1
0.23,0.48,0.83,-0.98,-2.69,1.53,29.57,-11.72,-42.40,1
0.23,0.49,0.83,4.58,-3.23,0.67,29.41,-12.02,-40.81,1
0.23,0.48,0.83,0.55,-4.21,1.83,29.09,-11.85,-41.65,1
0.23,0.49,0.83,1.95,-2.50,1.65,28.98,-11.58,-41.53,1
0.23,0.49,0.82,0.31,-3.42,1.34,29.39,-12.02,-41.70,1
0.23,0.49,0.82,1.10,-3.23,1.40,29.15,-11.83,-40.27,1
0.23,0.49,0.82,0.92,-3.54,0.24,29.22,-11.82,-41.05,1
0.23,0.50,0.82,2.81,-3.85,2.32,29.77,-11.50,-41.03,1
0.23,0.50,0.82,1.53,-3.48,1.16,29.60,-12.04,-40.77,1
0.23,0.49,0.82,3.23,-3.91,0.85,29.21,-12.33,-40.94,1
0.23,0.50,0.82,1.22,-3.17,1.40,29.24,-12.62,-40.72,1
0.23,0.50,0.82,2.93,-4.33,1.10,29.74,-12.26,-40.97,1
0.22,0.50,0.81,-0.06,-4.03,1.59,29.39,-12.16,-41.37,1
0.22,0.51,0.81,3.42,-4.03,1.40,29.43,-12.79,-40.20,1
0.22,0.51,0.81,2.26,-3.54,2.44,28.83,-12.67,-40.78,1
0.21,0.51,0.81,2.69,-4.94,1.40,29.02,-13.53,-41.15,1
0.22,0.51,0.81,2.20,-5.49,3.30,28.86,-12.17,-41.97,1
0.22,0.51,0.81,2.14,-5.68,4.03,29.04,-13.20,-41.36,1
0.21,0.51,0.81,2.01,-6.84,9.03,28.88,-13.44,-41.98,1
0.20,0.52,0.81,-2.81,-8.48,8.36,28.93,-13.33,-41.42,1
0.18,0.52,0.80,1.34,-10.68,10.38,28.26,-13.29,-41.56,1
0.17,0.54,0.82,11.47,-13.06,8.73,28.30,-12.82,-41.58,1
0.17,0.52,0.82,16.85,-10.93,3.91,28.06,-13.06,-41.46,1
0.15,0.50,0.83,15.69,-12.57,7.02,27.67,-12.96,-41.53,1
0.15,0.50,0.84,16.72,-12.45,6.71,27.19,-12.82,-42.27,1
0.13,0.48,0.85,20.45,-16.05,6.41,27.01,-11.63,-41.85,1
0.11,0.47,0.86,23.99,-14.77,6.65,27.05,-11.62,-42.52,1
0.10,0.44,0.88,41.20,-16.78,5.43,26.60,-10.57,-41.75,1
0.09,0.41,0.90,34.79,-15.14,4.52,26.16,-9.56,-41.98,1
0.07,0.38,0.90,31.86,-14.16,2.87,26.00,-9.02,-42.15,1
0.07,0.37,0.91,27.83,-16.24,4.03,25.18,-8.90,-41.74,1
0.05,0.36,0.93,25.57,-14.59,4.03,25.00,-8.25,-42.30,1
0.04,0.32,0.91,39.98,-19.23,3.11,24.77,-6.99,-42.61,1
0.02,0.27,0.94,39.18,-19.53,3.91,24.90,-6.41,-42.35,1
0.01,0.24,0.97,43.21,-19.17,4.15,23.74,-5.22,-42.16,1
-0.02,0.19,0.98,59.51,-29.30,2.75,23.38,-3.50,-40.76,1
-0.03,0.15,0.95,33.20,-21.18,0.49,22.73,-2.42,-42.02,1
-0.07,0.11,0.98,28.08,-20.57,3.60,22.42,-1.29,-41.22,1
-0.08,0.09,0.99,30.15,-22.89,0.85,21.69,-1.28,-41.08,1
-0.11,0.07,1.02,14.47,-20.51,5.25,21.20,-0.35,-40.36,1
-0.11,0.05,0.97,7.87,-21.48,8.24,21.08,-0.61,-40.64,1
-0.12,0.07,0.97,5.92,-14.83,1.71,20.07,0.52,-39.73,1
-0.13,0.07,0.99,10.31,-12.70,3.72,19.89,0.34,-40.53,1
-0.15,0.06,0.98,1.89,-19.47,5.68,19.03,0.51,-40.31,1
-0.16,0.06,0.98,5.92,-9.34,3.30,19.23,0.72,-40.80,1
-0.17,0.05,0.98,9.16,-7.39,1.53,18.92,0.46,-41.06,1
-0.17,0.04,0.97,15.20,-8.85,2.69,18.55,0.67,-41.05,1
-0.18,0.03,0.97,15.50,-5.62,1.46,18.47,1.22,-40.61,1
-0.18,0.02,0.98,12.88,-6.29,1.53,18.23,1.82,-40.42,1
-0.18,0.01,0.98,8.18,-5.31,2.75,18.32,2.17,-40.27,1
-0.19,0.01,0.98,4.27,-3.91,2.50,18.18,1.89,-40.71,1
-0.18,0.01,0.98,7.14,-4.70,1.95,18.64,2.27,-41.00,1
-0.19,0.00,0.97,6.65,-6.16,2.75,18.30,2.66,-39.56,1
-0.19,0.01,0.98,3.36,-2.81,1.59,17.71,2.09,-39.49,1
-0.19,-0.00,0.97,4.09,-4.58,2.38,18.20,2.33,-40.67,1
-0.19,0.01,0.98,3.91,-3.60,1.53,18.75,1.89,-40.20,1
-0.19,0.00,0.97,5.55,-4.15,2.26,18.35,2.67,-40.97,1
-0.19,0.01,0.98,2.01,-2.93,0.37,18.27,1.88,-39.39,1
-0.20,0.01,0.98,3.54,-3.66,1.22,18.23,2.03,-40.10,1
-0.19,0.01,0.98,3.11,-2.20,-0.06,18.40,2.75,-39.76,1
-0.19,0.01,0.97,6.35,-4.70,1.65,18.10,1.98,-40.47,1
-0.19,0.01,0.98,2.99,-1.34,0.18,18.01,2.78,-40.31,1
-0.19,0.00,0.97,3.78,-3.48,1.65,17.75,2.28,-40.43,1
-0.19,0.01,0.98,0.85,-2.50,0.55,18.38,2.48,-39.98,1
-0.19,0.01,0.97,3.66,-4.03,1.34,18.15,2.37,-39.94,1
-0.19,0.01,0.98,1.95,-2.75,0.79,18.24,2.44,-40.50,1
-0.19,0.01,0.98,2.08,-3.36,1.77,18.36,2.27,-40.44,1
-0.19,0.01,0.98,0.55,-2.75,1.46,17.90,2.16,-39.98,1
-0.19,0.02,0.98,1.40,-3.05,0.73,17.90,1.98,-40.59,1
-0.19,0.02,0.97,0.61,-2.08,0.37,17.90,2.26,-40.16,1
-0.19,0.02,0.97,1.77,-3.42,0.73,18.15,2.32,-40.16,1
-0.19,0.02,0.97,-0.37,-2.44,0.43,17.85,2.55,-40.76,1
-0.19,0.03,0.97,1.40,-2.93,0.43,18.25,2.26,-39.71,1
-0.19,0.03,0.98,-1.40,-3.66,1.28,18.01,1.61,-41.38,1
-0.19,0.03,0.97,-0.24,-2.93,0.79,18.30,1.82,-39.86,1
-0.18,0.04,0.97,-8.12,-1.16,0.43,18.52,1.86,-40.76,1
-0.18,0.05,0.97,0.37,-1.34,-0.12,17.97,1.18,-41.31,1
-0.18,0.06,0.96,-5.98,2.56,0.06,18.43,1.35,-40.82,1
-0.18,0.07,0.98,-2.87,0.12,-0.49,18.48,0.84,-40.28,1
-0.18,0.07,0.97,1.40,0.55,0.73,18.53,0.99,-41.14,1
-0.17,0.08,0.98,5.55,-1.59,1.46,17.98,0.78,-40.97,1
-0.17,0.08,0.98,2.62,0.49,-0.37,18.81,0.51,-40.49,1
-0.17,0.08,0.98,-3.85,4.39,0.00,18.79,-0.35,-41.02,1
-0.13,0.12,0.98,-20.14,16.24,-4.21,18.87,-0.74,-41.75,1
-0.13,0.10,0.97,-0.49,6.41,-4.52,19.15,-1.14,-41.87,1
-0.13,0.12,0.99,-11.05,6.53,0.31,19.29,-1.15,-41.78,1
-0.11,0.16,0.97,-17.52,12.45,-2.50,19.54,-2.32,-40.83,1
-0.09,0.17,0.96,-19.10,19.35,-3.30,20.56,-2.00,-42.10,1
-0.08,0.21,0.99,-14.22,14.04,1.95,21.53,-2.60,-42.04,1
-0.05,0.23,0.95,-20.26,16.05,-1.16,21.59,-4.28,-42.18,1
-0.04,0.22,0.95,-3.91,10.07,-2.01,21.74,-4.21,-42.14,1
-0.03,0.25,0.97,-19.35,15.32,-3.72,22.67,-4.47,-42.79,1
-0.01,0.30,0.96,-35.34,24.05,-2.69,23.68,-5.99,-41.76,1
0.01,0.32,0.91,-35.28,19.29,-3.48,24.27,-7.21,-41.87,1
0.04,0.36,0.92,-28.38,19.78,-5.92,23.94,-8.04,-42.50,1
0.06,0.39,0.91,-13.31,8.36,-1.59,24.82,-7.98,-42.38,1
0.06,0.38,0.92,-2.99,5.49,0.37,25.32,-9.01,-41.65,1
0.09,0.40,0.90,-13.18,14.89,-7.26,26.03,-9.34,-41.82,1
0.11,0.44,0.89,-28.32,22.03,-7.26,26.20,-9.97,-43.66,1
0.13,0.44,0.85,-21.73,17.33,-6.29,27.14,-10.34,-41.35,1
0.14,0.47,0.88,-11.78,5.13,-4.33,27.11,-10.95,-41.96,1
0.15,0.49,0.84,-9.70,6.41,-7.93,27.86,-11.35,-40.94,1
0.17,0.48,0.85,-2.93,5.62,-2.14,27.76,-11.63,-41.15,1
0.18,0.51,0.84,-5.98,7.32,-6.90,27.77,-11.45,-41.56,1
0.19,0.49,0.83,-6.41,9.77,-4.58,28.80,-12.38,-40.77,1
0.20,0.51,0.82,-4.82,2.14,-0.18,28.92,-12.60,-41.25,1
0.21,0.51,0.82,-0.79,-0.43,-1.46,28.64,-12.45,-41.59,1
0.21,0.52,0.82,-0.49,0.79,-2.14,28.67,-12.16,-40.82,1
0.22,0.53,0.82,-3.17,4.82,-3.23,28.93,-12.67,-40.10,1
0.23,0.52,0.78,-4.15,4.94,-4.46,29.60,-13.12,-40.23,1
0.23,0.53,0.80,-1.65,-0.24,0.49,29.48,-12.76,-41.71,1
0.24,0.53,0.79,-6.04,1.10,0.85,29.92,-13.33,-41.39,1
0.24,0.55,0.79,-4.82,0.61,1.22,29.54,-13.26,-41.50,1
0.24,0.55,0.78,1.10,-1.77,2.69,29.77,-13.24,-40.28,1
0.24,0.55,0.78,3.60,-2.32,0.61,30.03,-13.33,-40.80,1
0.24,0.55,0.78,0.85,-2.99,0.55,29.91,-13.21,-39.81,1
0.24,0.55,0.78,4.21,-3.23,2.14,29.92,-13.55,-40.77,1
0.24,0.55,0.78,5.74,-3.60,2.32,30.37,-13.59,-40.25,1
0.24,0.55,0.78,3.85,-3.42,2.44,29.94,-13.32,-40.83,1
0.24,0.55,0.78,4.27,-3.60,2.32,30.10,-13.75,-40.66,1
0.24,0.55,0.79,9.34,-5.43,3.30,30.26,-13.53,-40.81,1
0.23,0.54,0.79,8.91,-4.39,4.70,29.86,-13.54,-39.72,1
0.23,0.55,0.80,10.56,-4.82,3.48,30.09,-13.64,-40.21,1
0.23,0.53,0.78,5.37,-4.03,0.79,29.90,-13.60,-40.28,1
0.22,0.53,0.80,9.46,-6.04,3.05,29.86,-13.23,-40.93,1
0.22,0.53,0.80,12.15,-4.27,2.14,29.64,-13.02,-40.56,1
0.23,0.51,0.81,16.42,-2.44,4.76,29.42,-12.62,-40.73,1
0.22,0.51,0.80,36.87,-6.53,2.56,29.82,-12.62,-39.69,1
0.22,0.48,0.84,22.46,-5.55,3.78,29.64,-11.55,-40.56,1
0.21,0.48,0.84,9.77,1.28,3.42,29.83,-11.85,-40.39,1
0.21,0.47,0.84,29.79,-2.93,3.85,30.04,-11.77,-40.28,1
0.21,0.45,0.85,23.99,-5.07,4.03,30.08,-11.57,-40.64,1
0.21,0.44,0.86,14.40,-2.75,4.15,29.35,-10.42,-40.54,1
0.21,0.43,0.86,8.06,-0.37,3.36,29.39,-9.78,-40.92,1
0.20,0.42,0.87,20.39,-1.16,3.42,29.57,-9.73,-41.10,1
0.22,0.40,0.88,20.69,3.54,-1.10,29.60,-8.58,-40.70,1
0.22,0.39,0.89,8.91,-0.67,1.89,29.59,-8.62,-41.22,1
0.21,0.38,0.86,24.96,1.04,-0.79,29.46,-7.43,-41.44,1
0.22,0.36,0.87,10.25,-4.70,-1.16,29.36,-7.86,-41.22,1
0.23,0.35,0.90,12.27,-3.42,-1.40,28.98,-7.65,-41.48,1
0.22,0.35,0.90,26.31,-3.36,-4.82,29.22,-6.81,-41.47,1
0.23,0.31,0.92,25.94,-6.04,-3.91,29.39,-6.13,-39.89,1
0.22,0.30,0.90,32.90,-1.65,-10.19,28.64,-5.40,-41.00,1
0.24,0.27,0.94,36.80,-0.79,-9.34,28.56,-4.25,-40.70,1
0.23,0.21,0.91,37.17,-2.26,-4.21,28.52,-2.55,-40.43,1
0.23,0.21,0.96,28.44,-4.03,-3.30,28.55,-2.69,-40.76,1
0.25,0.17,0.95,27.53,-1.71,-5.25,28.25,-1.62,-39.50,1
0.24,0.15,0.94,11.90,-1.71,-2.93,28.66,-1.17,-39.81,1
0.25,0.14,0.96,21.12,0.92,-3.48,29.20,-0.42,-39.43,1
0.25,0.11,0.94,14.71,3.60,-2.38,29.06,0.02,-39.26,1
0.26,0.13,0.94,0.06,9.46,-4.52,29.66,-0.88,-39.42,1
0.28,0.12,0.95,-4.27,4.33,-2.38,29.55,-0.68,-40.42,1
0.29,0.13,0.95,-0.43,3.23,0.73,29.65,-1.11,-38.45,1
0.28,0.14,0.94,9.28,-1.16,0.43,29.69,-1.83,-39.21,1
0.29,0.12,0.94,3.97,-0.73,0.49,29.86,-0.51,-37.99,1
0.29,0.13,0.93,3.54,-1.16,1.40,30.21,-0.66,-37.95,1
0.29,0.13,0.94,2.14,-2.08,1.95,29.31,-0.79,-39.53,1
0.30,0.13,0.93,2.44,-4.64,1.83,29.61,-0.88,-39.78,1
0.29,0.14,0.94,-3.17,-5.13,-0.55,30.40,-0.52,-39.03,1
0.28,0.14,0.94,12.82,-7.39,-1.04,29.54,-0.48,-39.05,1
0.28,0.15,0.93,11.54,-5.37,3.54,29.58,-0.54,-39.71,1
0.28,0.09,0.93,16.85,-13.61,7.26,29.61,-0.20,-39.58,1
0.27,0.14,0.74,11.84,-24.90,18.74,29.19,0.16,-38.66,1
0.25,0.06,0.99,43.21,-27.22,-9.16,28.93,0.89,-37.99,1
0.20,0.01,0.92,36.01,-27.04,2.26,28.58,1.54,-38.85,1
0.19,0.01,0.99,34.48,-24.66,1.83,27.82,1.97,-38.96,1
0.15,-0.09,1.02,23.25,-21.61,6.04,26.94,2.97,-38.95,1
0.15,-0.03,1.00,6.59,-23.80,3.78,26.72,2.66,-38.70,1
0.13,-0.04,1.01,18.80,-12.33,1.40,26.22,3.45,-39.33,1
0.12,-0.05,0.98,5.49,-8.18,1.34,25.89,3.33,-38.96,1
0.11,-0.04,0.99,13.43,-9.22,-0.31,25.61,3.92,-38.66,1
0.10,-0.07,0.98,12.08,-9.22,-1.04,24.80,4.86,-38.62,1
0.11,-0.10,1.02,-0.37,-4.64,-4.52,24.96,4.28,-38.20,1
0.11,-0.06,0.98,35.16,-14.47,-5.25,24.78,4.83,-38.46,1
0.09,-0.06,0.97,4.52,1.28,4.70,24.50,4.96,-38.42,1
0.10,-0.09,0.99,8.24,1.16,-0.24,24.79,4.65,-38.61,1
0.11,-0.12,0.97,11.72,0.06,-0.67,25.01,4.88,-39.01,1
0.11,-0.11,0.99,6.04,-2.01,-0.18,25.24,4.72,-38.39,1
0.11,-0.11,0.97,9.95,-5.68,4.88,24.79,5.68,-37.45,1
0.11,-0.10,0.99,7.20,-8.67,2.20,24.87,5.11,-37.59,1
0.09,-0.11,0.97,6.77,-11.96,0.18,24.83,6.09,-37.67,1
0.08,-0.11,0.98,-1.16,-17.76,-1.16,24.12,5.83,-37.32,1
0.06,-0.10,1.00,-6.59,-15.81,0.55,23.93,5.36,-38.17,1
0.05,-0.12,0.99,-1.71,-13.00,0.06,23.38,5.09,-38.60,1
0.04,-0.09,1.02,-11.41,-19.29,2.08,23.86,4.80,-38.70,1
0.02,-0.05,0.97,-18.13,-24.84,5.80,22.71,4.90,-38.01,1
0.01,-0.04,0.99,-14.28,-24.29,11.23,22.50,3.82,-39.33,1
-0.02,-0.03,0.93,-4.15,-28.14,4.33,21.45,3.77,-38.23,1
-0.05,-0.03,1.00,-1.59,-18.43,2.50,21.42,3.45,-39.77,1
-0.07,-0.02,1.00,-1.04,-16.11,-0.43,21.42,3.27,-39.06,1
-0.07,-0.00,1.00,-5.86,-2.32,2.01,20.95,3.03,-39.73,1
-0.07,-0.00,0.98,-7.39,6.47,0.49,21.66,2.78,-39.18,1
-0.05,0.02,0.99,-10.74,20.69,-7.39,21.69,2.16,-39.79,1
-0.02,0.02,1.01,-7.63,26.06,1.53,22.17,1.44,-40.80,1
-0.00,0.04,0.96,-13.06,24.78,5.86,22.83,1.31,-40.28,1
0.01,0.10,1.00,-21.61,-1.34,8.85,23.33,0.43,-40.03,1
0.01,0.09,0.74,-17.03,-9.77,3.30,22.79,-0.27,-40.44,1
0.00,0.04,0.99,28.99,6.90,-1.10,23.03,0.96,-40.33,1
0.02,0.07,0.98,17.46,-4.33,1.89,23.71,1.38,-40.94,1
0.05,0.05,0.98,11.60,-2.62,0.37,22.78,1.20,-40.06,1
0.01,-0.17,1.05,30.15,-5.98,0.73,23.67,1.42,-39.56,1
0.02,-0.03,1.05,77.82,-19.29,1.71,23.63,2.99,-39.53,1
-0.00,-0.01,0.99,3.66,-13.00,-2.20,23.03,2.75,-38.89,1
-0.01,-0.01,0.99,4.27,-3.72,-5.80,23.56,2.64,-39.98,1
-0.03,-0.00,0.99,9.03,-5.31,-1.46,22.28,2.70,-38.85,1
0.05,-0.09,0.99,3.78,-3.54,3.78,22.91,2.61,-38.78,1
-0.02,-0.01,0.99,4.33,-3.97,-2.20,23.16,2.83,-39.77,1
-0.01,-0.05,1.00,1.83,-3.11,-1.83,22.47,2.58,-38.61,1
-0.04,-0.02,1.00,4.27,-3.42,-3.23,22.51,1.97,-39.36,1
-0.01,-0.00,0.99,4.76,-3.48,-8.06,22.35,2.23,-38.21,1
-0.03,-0.01,0.99,3.85,-3.42,-13.06,22.29,2.83,-38.94,1
-0.00,-0.03,0.99,3.36,-2.56,-7.87,22.62,2.09,-39.65,1
-0.01,0.00,1.00,3.05,-2.99,-5.80,22.60,1.77,-39.97,1
0.00,-0.05,0.99,4.88,-2.87,-6.29,22.42,2.01,-39.16,1
-0.03,0.02,0.99,4.09,-3.17,-5.00,22.41,2.59,-39.29,1
-0.00,-0.03,1.00,4.09,-3.60,-19.23,21.72,2.08,-40.20,1
-0.02,-0.01,0.99,3.48,-2.99,-4.15,22.06,2.28,-40.00,1
-0.01,-0.02,0.99,3.85,-3.42,-5.49,21.74,2.54,-40.53,1
-0.01,-0.02,1.00,4.03,-3.36,1.22,22.46,2.19,-39.64,1
-0.01,-0.01,0.99,3.97,-2.93,1.46,22.09,1.72,-38.99,1
-0.01,-0.01,1.00,4.27,-3.11,2.26,22.01,2.06,-39.58,1
-0.01,-0.01,0.99,3.97,-3.05,1.40,22.33,1.88,-38.26,1
-0.01,-0.01,1.00,4.03,-3.17,1.77,21.77,1.54,-39.06,1
-0.01,-0.01,1.00,3.85,-2.99,1.59,22.40,1.76,-39.37,1
-0.01,-0.01,0.99,4.03,-3.05,1.53,22.41,2.14,-38.66,1
-0.01,-0.01,0.99,3.91,-3.17,2.75,22.28,2.26,-39.34,1
-0.01,-0.01,0.99,3.85,-3.05,2.14,22.38,1.77,-39.40,1
-0.01,-0.01,0.99,3.78,-3.11,1.77,22.42,1.89,-39.59,1
-0.02,-0.02,0.99,3.91,-3.23,2.32,22.23,2.21,-38.96,1
-0.01,-0.01,0.99,4.15,-2.99,1.40,22.33,1.97,-39.43,1
-0.01,-0.01,0.99,3.91,-3.05,1.40,22.84,1.84,-40.12,1
-0.01,-0.01,0.99,3.85,-3.11,1.65,22.55,1.84,-40.09,1
-0.01,-0.01,0.99,3.91,-3.17,1.83,22.51,1.89,-39.66,1
-0.01,-0.01,0.99,3.85,-2.93,1.65,22.38,1.51,-39.75,1
-0.01,-0.01,0.99,4.15,-3.11,1.65,22.95,1.54,-39.73,1
-0.01,-0.01,0.99,4.09,-3.23,1.53,22.86,1.60,-39.64,1
-0.01,-0.01,1.00,3.85,-3.05,1.59,22.71,1.57,-39.39,1
-0.01,-0.01,0.99,3.85,-3.05,1.59,22.51,1.22,-40.09,1
-0.01,-0.01,0.99,3.91,-3.05,2.50,22.47,1.89,-39.60,1
-0.01,-0.01,0.99,4.03,-3.05,2.26,22.91,1.49,-39.64,1
-0.01,-0.01,0.99,4.09,-2.99,2.38,23.21,1.03,-38.83,1
-0.02,-0.02,1.00,3.85,-3.23,5.19,22.99,1.22,-39.84,1
-0.01,-0.01,0.99,3.97,-2.99,2.14,22.34,1.68,-39.23,1
-0.01,-0.01,0.99,3.85,-3.05,1.65,22.99,0.76,-38.85,1
-0.01,-0.01,0.99,4.09,-3.11,1.46,23.00,1.46,-39.40,1
-0.01,-0.01,0.99,3.85,-3.11,1.46,23.18,1.50,-39.20,1
-0.01,-0.01,0.99,4.03,-3.11,1.46,23.00,1.14,-39.09,1
-0.01,-0.01,0.99,3.97,-3.17,1.53,22.92,1.42,-39.82,1
-0.01,-0.01,0.99,3.91,-3.11,1.71,22.68,1.68,-39.18,1
-0.01,-0.01,0.99,3.78,-2.99,1.59,22.86,1.33,-39.34,1
-0.01,-0.01,0.99,3.91,-3.05,1.89,23.35,1.48,-39.26,1
-0.01,-0.01,0.99,3.85,-3.23,1.59,23.18,1.65,-39.18,1
-0.01,-0.01,0.99,4.03,-3.05,1.65,23.24,2.21,-40.59,1
-0.01,-0.01,0.99,4.09,-3.23,1.53,23.50,1.86,-38.98,1
-0.01,-0.01,0.99,3.85,-3.30,1.40,23.57,1.18,-39.38,1
-0.01,-0.01,0.99,3.91,-3.17,1.46,22.94,1.67,-39.12,1
-0.01,-0.01,0.99,3.66,-3.17,2.08,22.88,1.62,-39.49,1
-0.01,-0.01,0.99,3.97,-3.05,1.71,22.71,1.67,-40.38,1
-0.01,-0.01,0.99,3.97,-3.17,1.46,22.91,1.77,-39.60,1
-0.01,-0.01,0.99,4.09,-3.23,1.65,22.50,1.32,-39.27,1
-0.01,-0.01,0.99,4.03,-3.11,1.40,22.52,1.99,-40.67,1
-0.01,-0.01,0.99,3.97,-3.23,1.53,23.57,1.98,-39.64,1
-0.02,-0.01,0.99,3.85,-3.17,1.65,23.38,1.33,-39.89,1
-0.01,-0.01,0.99,3.91,-3.11,1.59,22.75,1.32,-40.12,1
-0.01,-0.01,0.99,4.03,-3.17,1.59,23.16,1.68,-38.50,1
-0.01,-0.01,0.99,3.97,-3.11,1.34,23.10,1.68,-39.54,1
-0.01,-0.01,0.99,4.03,-3.11,1.46,22.97,1.86,-39.82,1
-0.01,-0.01,0.99,3.85,-3.11,1.40,23.00,1.51,-38.94,1
-0.01,-0.01,0.99,4.03,-3.30,1.53,23.54,1.76,-38.92,1
-0.02,-0.01,0.99,3.91,-2.99,1.46,23.07,1.54,-39.40,1
-0.01,-0.01,0.99,3.91,-3.05,1.59,23.14,1.20,-40.39,1
-0.01,-0.01,0.99,4.09,-3.05,1.46,23.43,2.21,-39.99,1
-0.01,-0.01,0.99,4.03,-3.17,1.46,23.02,1.55,-39.60,1
-0.01,-0.01,0.99,3.97,-2.99,1.71,22.88,1.37,-40.16,1
-0.01,-0.01,0.99,3.97,-3.17,1.10,22.85,1.89,-39.37,1
-0.01,-0.01,0.99,3.91,-2.99,1.34,22.83,1.75,-39.50,1
-0.02,0.03,0.99,3.85,-2.99,-0.67,22.00,3.25,-38.70,1
0.07,-0.06,1.02,3.78,-8.79,9.95,22.18,3.15,-40.01,1
-0.01,-0.00,0.99,1.34,-3.17,1.83,21.62,3.10,-38.72,1
-0.00,-0.04,1.10,27.34,-14.65,-6.71,21.28,3.69,-39.37,1
-0.04,-0.03,0.92,0.24,4.39,2.62,21.61,3.70,-39.59,1
-0.03,-0.01,0.87,-13.18,5.92,2.32,21.67,3.61,-39.92,1
0.00,-0.01,1.05,5.74,-4.27,-0.73,21.90,3.82,-39.48,1
-0.00,-0.03,1.06,4.70,-0.24,-2.93,22.03,3.58,-40.17,1
-0.01,-0.01,0.95,-2.01,-8.12,3.11,22.12,2.48,-39.45,1
-0.01,-0.00,1.01,-3.91,-1.95,1.77,21.55,3.15,-40.37,1
-0.01,-0.01,1.00,8.67,-11.05,2.44,21.94,3.11,-39.32,1
-0.03,-0.01,0.98,3.72,-10.93,4.03,21.44,2.86,-39.27,1
-0.03,-0.02,1.02,7.75,-18.31,1.71,21.11,2.83,-39.48,1
-0.03,-0.01,0.98,7.51,-16.97,2.38,20.61,2.89,-40.03,1
-0.07,-0.01,1.01,-0.92,-13.06,3.30,20.68,3.30,-39.20,1
-0.07,-0.02,0.97,3.72,-16.97,0.79,19.82,3.28,-39.49,1
-0.08,0.00,1.00,-3.36,2.26,15.56,19.81,3.47,-39.92,1
-0.07,-0.00,0.99,6.23,-4.76,1.34,19.79,2.72,-38.70,1
-0.08,0.00,0.99,2.99,0.49,0.24,20.07,2.78,-40.04,1
-0.07,0.00,1.00,3.05,0.12,0.49,20.41,2.58,-38.77,1
-0.07,-0.00,0.99,4.46,-2.26,1.40,19.86,3.28,-39.39,1
-0.07,-0.00,1.00,2.93,0.85,0.79,20.28,3.14,-40.55,1
-0.07,0.00,0.99,5.68,-4.27,1.77,20.21,2.38,-40.41,1
-0.06,0.00,0.99,2.69,-1.28,1.34,20.73,2.80,-39.84,1
-0.07,-0.00,0.99,3.36,-3.36,1.04,19.97,3.34,-39.59,1
-0.07,0.00,0.99,2.50,-1.04,1.65,20.91,2.75,-39.84,1
-0.06,0.01,1.00,1.77,-3.11,2.99,20.29,3.12,-39.64,1
-0.09,0.02,0.99,-6.71,-1.28,3.23,20.47,2.66,-39.92,1
-0.07,0.02,1.00,0.00,-3.30,2.69,20.97,2.40,-39.73,1
-0.06,0.02,1.00,-11.47,-1.65,4.33,20.18,2.21,-39.65,1
-0.06,0.06,0.99,-33.39,0.12,5.49,20.12,1.10,-39.89,1
-0.06,0.11,0.98,-47.00,1.46,5.07,20.36,-0.45,-41.87,1
-0.05,0.16,0.98,-52.67,2.50,3.78,21.36,-1.48,-41.61,1
-0.05,0.21,0.95,-32.65,-2.20,4.82,20.50,-2.91,-40.95,1
-0.05,0.24,0.96,-35.64,1.71,2.50,21.18,-3.98,-42.31,1
-0.04,0.28,0.94,-25.76,-0.67,5.13,20.83,-4.61,-42.08,1
-0.04,0.30,0.93,-21.91,1.16,2.26,21.01,-6.20,-42.26,1
-0.04,0.33,0.93,-16.30,-0.61,2.62,21.98,-6.57,-42.22,1
-0.04,0.35,0.91,-26.25,-0.67,2.69,21.45,-6.85,-43.08,1
-0.04,0.38,0.91,-31.86,1.16,3.85,21.66,-8.83,-42.98,1
-0.04,0.39,0.90,-7.14,-2.99,2.38,21.62,-8.67,-42.97,1
-0.04,0.40,0.90,-1.46,-1.77,2.14,21.55,-9.27,-42.64,1
-0.04,0.41,0.90,-0.79,-1.71,1.59,21.34,-8.92,-42.04,1
-0.04,0.41,0.90,-4.39,-2.14,1.95,21.15,-9.51,-42.55,1
-0.04,0.42,0.89,-0.49,-2.38,0.61,22.11,-9.40,-41.94,1
-0.04,0.42,0.90,8.48,-3.30,1.04,21.74,-9.58,-43.10,1
-0.04,0.42,0.89,2.44,-3.11,1.34,21.74,-9.52,-42.31,1
-0.04,0.42,0.89,5.68,-2.75,0.85,21.83,-8.96,-43.79,1
-0.04,0.42,0.90,2.99,-3.48,1.10,21.59,-9.42,-42.46,1
-0.04,0.42,0.90,5.13,-2.26,1.10,22.07,-9.16,-42.88,1
-0.04,0.42,0.89,3.60,-2.99,1.16,22.01,-8.92,-43.24,1
-0.04,0.41,0.89,4.27,-2.14,0.67,21.73,-9.63,-43.38,1
-0.04,0.41,0.90,7.69,-2.87,0.43,21.77,-9.14,-42.43,1
-0.04,0.41,0.89,5.19,-3.30,0.67,22.25,-8.91,-42.03,1
-0.04,0.41,0.90,4.58,-2.56,0.43,21.64,-9.24,-41.87,1
-0.03,0.40,0.90,6.10,-2.38,0.92,21.67,-7.97,-42.47,1
-0.03,0.40,0.90,5.86,-1.71,-0.18,21.78,-8.72,-42.38,1
-0.03,0.39,0.92,26.61,-0.92,-0.85,21.63,-8.41,-42.74,1
-0.03,0.37,0.92,27.77,-1.04,-1.53,21.41,-7.26,-42.49,1
-0.02,0.35,0.93,27.77,-3.97,1.46,21.04,-6.24,-41.85,1
-0.03,0.33,0.93,14.53,-3.48,-0.43,20.83,-6.13,-42.65,1
-0.02,0.32,0.95,20.26,-2.75,-0.61,21.42,-5.98,-41.20,1
-0.03,0.30,0.94,23.99,-4.88,0.61,21.30,-5.27,-42.14,1
-0.02,0.29,0.95,19.59,-2.62,-0.61,21.17,-5.03,-41.72,1
-0.02,0.27,0.94,24.05,-3.85,-2.50,21.80,-4.14,-42.44,1
-0.03,0.23,0.97,30.64,-4.21,-1.04,21.13,-3.33,-42.15,1
-0.03,0.21,0.97,32.65,-6.41,-2.08,21.50,-2.69,-41.64,1
-0.03,0.18,0.96,38.51,-2.93,-2.81,21.46,-1.43,-41.21,1
-0.03,0.16,0.98,17.15,-1.89,0.55,21.68,-1.45,-41.86,1
-0.02,0.15,0.97,43.03,-3.48,-3.60,21.33,-0.70,-41.61,1
-0.02,0.08,1.00,40.53,-2.50,-2.20,21.57,0.73,-40.63,1
-0.02,0.06,0.98,33.81,-3.85,-3.05,21.66,1.39,-40.55,1
-0.02,0.04,1.00,26.06,-4.39,-0.79,21.42,1.93,-39.97,1
-0.02,0.00,0.99,35.52,-4.03,-2.62,21.02,2.65,-41.26,1
-0.02,-0.02,0.99,19.35,-2.08,0.67,21.53,3.43,-40.73,1
-0.02,-0.04,1.00,22.09,-0.98,-1.89,21.34,3.61,-40.71,1
-0.01,-0.06,1.00,17.21,0.73,1.04,21.79,4.31,-39.37,1
-0.01,-0.07,1.00,17.21,0.12,-0.06,21.50,4.75,-39.59,1
-0.01,-0.08,0.99,20.94,0.98,-1.40,21.97,5.68,-38.42,1
0.00,-0.11,1.00,22.46,3.97,-0.49,21.61,5.80,-38.43,1
0.00,-0.11,0.98,17.40,-0.67,-0.79,21.35,6.76,-37.63,1
0.01,-0.13,0.99,14.40,2.87,0.18,21.15,6.57,-37.94,1
0.02,-0.14,1.00,19.65,4.70,-1.46,21.66,6.75,-38.50,1
0.02,-0.16,0.98,15.20,0.24,0.37,22.33,7.50,-38.76,1
0.02,-0.16,0.98,9.52,-0.79,0.43,22.00,7.42,-37.68,1
0.02,-0.17,0.98,10.38,-0.37,0.06,21.77,8.02,-36.89,1
0.02,-0.17,0.98,3.11,-1.95,1.28,22.12,7.17,-37.84,1
0.03,-0.18,0.98,12.82,-4.03,1.04,21.87,7.10,-36.41,1
0.03,-0.18,0.99,5.68,-1.77,1.65,21.90,7.74,-37.00,1
0.03,-0.19,0.98,11.23,-2.08,1.40,21.85,7.54,-37.60,1
0.03,-0.19,0.98,10.38,-1.16,1.16,21.89,8.36,-36.35,1
0.03,-0.20,0.98,8.00,-1.53,0.73,21.81,7.54,-36.71,1
0.03,-0.20,0.97,6.59,-2.14,2.14,22.41,8.23,-36.79,1
0.03,-0.20,0.98,7.57,-4.39,0.24,22.03,8.24,-36.43,1
0.03,-0.20,0.97,2.93,-2.62,0.73,21.87,8.86,-37.96,1
0.03,-0.20,0.98,1.71,-2.75,1.22,22.24,8.26,-37.23,1
0.03,-0.21,0.97,3.72,-3.48,0.79,22.22,8.51,-36.87,1
0.03,-0.20,0.98,3.78,-3.11,0.73,22.06,8.14,-37.57,1
0.03,-0.20,0.97,2.56,-4.03,0.37,22.12,8.70,-36.38,1
0.03,-0.20,0.98,3.60,-3.48,0.49,21.83,8.25,-36.00,1
0.03,-0.20,0.97,3.78,-3.66,1.28,21.70,8.37,-36.98,1
0.03,-0.20,0.98,2.26,-3.85,1.04,22.23,8.84,-37.13,1
0.03,-0.20,0.97,2.69,-3.66,1.10,22.46,8.15,-35.96,1
0.03,-0.20,0.98,1.22,-3.66,1.16,22.19,8.39,-37.49,1
0.03,-0.20,0.97,3.23,-4.03,1.10,21.57,7.71,-37.21,1
0.03,-0.19,0.98,0.92,-4.21,0.31,22.18,8.19,-36.33,1
0.02,-0.19,0.97,0.31,-3.85,0.92,22.06,7.76,-36.79,1
0.02,-0.18,0.98,1.46,-5.07,0.98,21.91,7.93,-37.18,1
0.03,-0.18,0.98,-0.37,-3.48,1.28,21.74,7.26,-36.58,1
0.02,-0.18,0.98,0.37,-4.58,0.43,22.02,8.01,-37.11,1
0.02,-0.17,0.98,-1.71,-4.46,1.71,22.02,7.46,-37.99,1
0.02,-0.16,0.99,-3.91,-5.80,1.46,21.70,6.58,-38.28,1
0.01,-0.15,0.98,-4.58,-5.31,1.53,21.94,6.73,-38.34,1
0.01,-0.14,0.99,-5.74,-8.18,0.92,22.18,6.31,-38.12,1
0.00,-0.13,0.98,-5.74,-6.77,0.85,21.91,6.79,-38.72,1
-0.00,-0.13,0.99,-4.46,-6.77,2.32,21.55,6.23,-37.30,1
-0.01,-0.11,0.99,-4.64,-5.25,1.77,21.78,6.07,-38.56,1
-0.00,-0.10,0.99,-2.08,-4.70,1.34,21.50,5.29,-39.44,1
-0.01,-0.10,0.99,-3.54,-5.80,2.38,21.25,5.03,-38.42,1
-0.01,-0.09,0.99,-5.62,-5.92,1.83,21.64,5.37,-38.56,1
-0.02,-0.08,1.00,-7.69,-7.26,2.44,21.85,5.44,-39.11,1
-0.02,-0.06,1.00,-7.39,-8.18,3.23,21.55,4.74,-39.12,1
-0.03,-0.06,0.98,-15.93,-11.29,1.04,21.04,4.28,-39.16,1
-0.04,-0.03,0.99,-6.47,-9.89,2.32,21.07,3.78,-39.38,1
-0.05,-0.03,1.00,-0.92,-6.96,3.05,21.22,4.49,-38.50,1
-0.05,-0.03,1.00,-0.18,-7.69,1.95,21.07,3.12,-39.33,1
-0.06,-0.02,0.99,0.67,-8.36,1.65,20.46,3.65,-39.72,1
-0.06,-0.02,0.99,1.22,-6.65,1.77,20.46,3.74,-39.98,1
-0.06,-0.02,1.01,1.28,-9.64,2.81,20.39,3.36,-39.10,1
-0.07,-0.02,0.99,2.50,-11.41,3.48,20.10,3.69,-38.94,1
-0.08,-0.01,1.00,-7.45,-6.77,3.17,20.39,2.97,-40.03,1
-0.08,0.00,1.00,-8.30,-8.97,2.01,19.69,3.08,-40.69,1
-0.09,0.01,0.99,1.34,-5.25,2.75,19.36,2.93,-40.10,1
-0.09,0.01,1.00,3.66,-4.52,2.81,19.75,3.14,-40.33,1
-0.09,0.01,0.99,3.23,-6.23,1.95,20.21,2.48,-40.66,1
-0.10,0.01,0.99,3.17,-5.25,1.46,19.81,2.22,-39.89,1
-0.09,0.01,0.99,4.76,-3.85,1.59,19.80,2.78,-40.93,1
-0.10,0.01,0.99,3.97,-4.27,0.12,19.34,3.08,-40.42,1
-0.10,0.01,0.99,2.01,-4.82,2.01,19.81,2.42,-40.81,1
-0.10,0.01,0.99,2.75,-3.91,2.01,18.96,2.82,-40.33,1
-0.10,0.02,0.99,3.05,-4.33,0.85,19.24,3.16,-41.00,1
-0.11,0.01,0.99,3.66,-4.82,1.04,19.18,2.43,-40.10,1
-0.11,0.01,0.99,3.91,-4.76,1.16,19.19,2.62,-40.04,1
-0.11,0.01,0.99,4.70,-5.74,1.65,19.30,2.66,-39.78,1
-0.11,0.01,0.98,2.69,-3.17,1.22,19.41,2.39,-39.87,1
-0.11,0.02,0.99,3.42,-4.70,1.65,19.32,2.27,-39.93,1
-0.11,0.03,0.98,0.98,-4.27,1.16,19.53,2.20,-40.53,1
-0.11,0.01,1.00,0.06,-3.97,-0.49,19.37,3.28,-39.00,1
-0.12,0.02,0.99,3.54,-5.31,1.10,18.95,2.29,-40.20,1
-0.12,0.02,0.99,3.11,-3.60,0.49,19.37,1.81,-40.66,1
-0.12,0.02,0.98,4.39,-4.21,1.34,19.63,2.33,-40.52,1
-0.12,0.02,0.99,3.54,-1.59,0.55,19.31,2.22,-40.80,1
-0.12,0.02,0.99,5.43,-4.82,0.31,18.99,2.10,-40.49,1
-0.12,0.02,0.99,2.69,-1.95,1.22,19.02,2.21,-39.77,1
-0.11,0.02,0.99,4.52,-4.15,1.40,18.92,2.51,-39.61,1
-0.12,0.02,0.99,3.54,-3.17,0.43,19.20,2.71,-39.86,1
-0.12,0.03,0.99,4.09,-3.72,0.55,19.04,2.32,-41.11,1
-0.12,0.02,0.99,3.11,-2.69,1.34,19.46,2.19,-40.45,1
-0.12,0.03,0.99,4.58,-3.48,1.22,19.46,1.99,-39.90,1
-0.12,0.02,0.99,4.64,-3.05,1.71,18.96,1.66,-39.81,1
-0.12,0.02,0.99,3.11,-2.81,0.43,19.51,2.08,-39.93,1
-0.12,0.02,0.99,4.15,-3.17,0.98,19.32,2.03,-39.78,1
-0.12,0.02,0.99,2.69,-1.71,0.18,19.42,1.81,-40.26,1
-0.12,0.03,0.99,2.87,-3.78,1.40,19.17,1.60,-39.93,1
-0.12,0.02,0.99,4.46,-2.75,1.28,19.30,2.01,-39.71,1
-0.12,0.02,0.99,4.27,-3.23,0.67,19.12,1.66,-39.89,1
-0.12,0.03,0.99,3.72,-3.11,0.43,19.49,2.21,-41.17,1
-0.12,0.03,0.99,2.75,-2.87,1.53,19.40,1.94,-40.55,1
-0.11,0.03,0.99,3.78,-3.48,0.24,19.37,1.70,-40.25,1
-0.12,0.03,0.99,4.58,-3.72,1.77,19.80,1.93,-39.64,1
-0.11,0.03,0.99,3.78,-3.48,0.92,19.41,1.92,-40.17,1
-0.12,0.03,0.99,2.93,-2.50,1.28,19.31,2.21,-40.47,1
-0.12,0.03,0.98,5.31,-3.23,1.59,19.27,1.86,-41.19,1
-0.12,0.03,0.99,3.72,-1.53,1.89,19.32,1.72,-39.83,1
-0.11,0.02,0.99,4.33,-4.15,1.65,19.03,2.23,-40.10,1
-0.12,0.03,0.98,4.33,-2.87,1.40,18.88,1.90,-39.76,1
-0.11,0.03,0.99,3.48,-3.17,1.28,18.75,2.01,-39.92,1
-0.11,0.03,0.98,3.60,-2.93,0.79,19.34,1.67,-40.33,1
-0.12,0.03,0.99,3.66,-2.14,1.28,19.36,1.60,-39.66,1
-0.11,0.02,0.99,5.62,-3.66,1.34,19.58,2.25,-39.75,1
-0.12,0.03,0.99,3.23,-2.69,1.34,19.30,1.65,-40.26,1
-0.11,0.03,0.98,4.27,-2.93,2.32,19.67,2.21,-40.59,1
-0.11,0.02,0.99,3.36,-2.26,1.28,19.21,1.55,-40.01,1
-0.11,0.02,0.99,4.58,-4.15,1.10,19.97,2.06,-39.16,1
-0.11,0.02,0.99,2.62,-3.11,1.10,19.80,1.93,-39.61,1
-0.11,0.03,0.99,4.64,-4.27,1.04,19.71,2.47,-40.63,1
-0.12,0.02,0.98,4.52,-3.60,1.89,19.36,2.10,-40.22,1
-0.12,0.03,0.99,3.66,-2.93,1.16,19.75,1.95,-40.26,1
-0.12,0.02,0.98,4.46,-3.54,2.14,18.92,1.53,-40.31,1
-0.11,0.03,0.99,3.23,-2.01,0.98,19.15,2.20,-39.66,1
-0.11,0.02,0.99,3.97,-3.91,1.04,19.25,2.34,-39.37,1
-0.11,0.02,0.99,4.03,-2.62,1.34,19.58,2.06,-40.09,1
-0.11,0.03,0.99,4.76,-4.03,0.85,19.48,2.06,-39.70,1
-0.12,0.03,0.98,3.42,-3.30,0.79,19.86,2.09,-40.44,1
-0.12,0.03,0.99,2.87,-2.99,1.53,19.08,1.94,-40.20,1
-0.11,0.03,0.99,3.60,-2.32,1.04,19.63,2.19,-40.48,1
-0.11,0.03,0.99,3.72,-3.11,1.28,19.49,2.44,-39.33,1
-0.11,0.03,0.99,3.72,-3.36,1.34,19.34,2.05,-40.15,1
-0.12,0.03,0.99,4.21,-2.87,1.16,18.93,2.00,-40.56,1
-0.11,0.03,0.99,5.13,-2.93,1.34,19.58,1.84,-38.96,1
-0.14,0.03,0.98,5.43,-2.20,1.59,19.92,1.79,-40.97,1
-0.11,0.02,0.99,4.82,-1.28,1.59,19.98,2.25,-40.69,1
-0.11,0.02,0.99,5.55,-1.40,1.89,19.74,1.87,-40.83,1
-0.10,0.02,0.99,3.97,1.46,0.06,19.81,2.39,-40.73,1
-0.11,0.03,1.00,-4.46,4.88,1.71,19.82,1.72,-39.79,1
-0.09,0.04,0.99,-5.98,5.00,1.65,19.84,1.66,-40.38,1
-0.08,0.05,0.98,-0.55,5.31,0.98,20.20,1.72,-40.92,1
-0.07,0.05,0.99,-0.31,17.27,-2.87,20.90,1.46,-41.27,1
-0.04,0.05,0.98,5.07,13.37,-1.28,21.79,1.16,-40.17,1
-0.04,0.06,1.00,3.91,6.04,1.34,21.64,1.53,-40.49,1
-0.02,0.05,1.00,5.49,9.03,0.49,21.85,1.44,-39.62,1
-0.01,0.05,0.98,4.76,3.23,0.98,22.11,0.70,-40.82,1
-0.01,0.05,1.02,14.22,11.05,-1.16,22.03,1.05,-39.77,1
0.01,0.04,0.97,5.55,10.68,2.69,22.86,1.57,-41.15,1
0.02,0.05,0.99,5.55,12.08,2.20,23.08,1.32,-41.14,1
0.04,0.03,1.00,7.51,9.89,1.10,23.50,1.76,-40.09,1
0.06,0.04,0.99,5.62,18.74,-0.18,24.41,1.83,-40.28,1
0.08,0.02,1.00,12.15,15.56,-0.61,24.58,1.61,-39.31,1
0.09,0.02,0.98,8.85,18.92,0.73,25.85,1.45,-38.96,1
0.12,0.04,1.00,-3.91,21.42,-1.95,25.79,2.32,-39.51,1
0.15,0.04,0.95,-1.71,31.07,-2.99,26.10,2.06,-38.34,1
0.17,0.03,0.94,-7.39,25.27,-1.46,26.64,1.25,-39.10,1
0.20,0.03,0.98,1.89,18.37,2.26,27.44,1.27,-37.76,1
0.22,0.06,0.94,-4.64,19.41,0.12,28.45,1.09,-39.23,1
0.24,0.07,0.98,1.34,9.52,3.66,28.47,0.83,-38.83,1
0.24,0.07,0.96,-0.85,13.00,-1.40,29.21,1.14,-37.78,1
0.27,0.07,0.95,-1.46,20.14,-2.56,29.44,0.83,-38.57,1
0.28,0.06,0.94,9.58,4.88,-0.67,29.28,0.79,-37.95,1
0.29,0.05,0.94,-1.53,10.38,-2.62,29.88,1.05,-38.21,1
0.31,0.06,0.93,-6.59,15.14,-0.98,30.09,1.14,-37.56,1
0.33,0.06,0.95,-1.34,9.34,-2.56,30.22,1.05,-37.61,1
0.42,0.05,1.00,17.70,13.92,-4.76,31.01,1.35,-37.32,1
0.34,0.04,0.92,11.78,1.22,-4.64,30.47,1.90,-37.40,1
0.34,0.04,0.94,10.01,-1.16,1.10,30.20,2.25,-36.95,1
0.35,0.04,0.93,17.21,2.75,-3.72,30.83,1.88,-38.10,1
0.36,0.01,0.92,17.40,1.46,-4.15,30.32,2.59,-36.62,1
0.36,-0.00,0.93,9.64,0.43,-1.10,30.26,3.26,-36.99,1
0.36,0.00,0.92,9.09,1.04,0.43,30.32,2.59,-36.06,1
0.37,-0.00,0.93,7.51,-1.16,1.59,30.16,2.97,-36.95,1
0.37,-0.01,0.92,2.01,-0.73,-0.55,31.05,2.82,-37.04,1
0.37,0.01,0.94,3.17,-0.06,1.40,30.53,3.04,-36.17,1
0.37,0.00,0.90,6.96,8.06,-4.03,30.14,3.38,-37.32,1
0.38,-0.02,0.93,5.55,-0.06,-0.67,30.91,3.41,-36.99,1
0.38,-0.01,0.90,3.05,-2.01,0.31,30.57,3.87,-36.84,1
0.39,-0.00,0.92,3.48,-2.75,0.79,31.08,3.25,-35.66,1
0.39,-0.01,0.92,6.35,-1.16,-1.10,30.73,3.09,-36.79,1
0.39,-0.01,0.92,1.83,-0.49,0.85,31.10,3.38,-37.52,1
0.39,-0.00,0.91,5.92,0.24,-0.12,30.68,3.59,-35.46,1
0.39,-0.01,0.91,2.99,-1.16,-0.18,31.19,3.21,-36.02,1
0.40,-0.01,0.91,2.14,-2.99,1.22,30.74,3.53,-35.62,1
0.40,-0.01,0.91,4.09,-2.50,0.61,31.01,3.02,-36.13,1
0.39,-0.01,0.91,3.60,-3.66,2.14,31.03,3.54,-36.32,1
0.40,-0.01,0.91,5.07,-2.50,0.31,30.92,2.80,-36.35,1
0.39,-0.01,0.91,2.62,-3.91,1.71,31.67,3.14,-37.39,1
0.39,-0.00,0.91,3.91,-2.62,0.92,30.91,2.87,-36.15,1
0.39,-0.01,0.91,3.11,-3.85,0.67,31.05,3.67,-35.85,1
0.39,-0.00,0.92,3.54,-3.11,1.83,30.98,3.22,-36.29,1
0.39,-0.01,0.91,2.69,-3.54,1.46,31.76,3.25,-37.15,1
0.39,-0.00,0.91,4.27,-3.78,1.28,30.49,3.27,-36.78,1
0.40,-0.01,0.91,5.86,-3.60,2.20,30.92,3.80,-37.17,1
0.39,-0.00,0.92,4.39,-2.87,2.08,31.56,3.60,-36.16,1
0.39,-0.00,0.91,3.23,-3.66,0.67,31.40,2.98,-35.99,1
0.39,-0.00,0.92,1.46,-2.93,1.16,31.14,3.19,-36.25,1
0.39,-0.00,0.91,3.72,-2.99,1.34,31.15,3.22,-37.49,1
0.39,0.00,0.91,3.91,-3.30,1.71,31.03,3.52,-36.22,1
0.38,0.00,0.91,5.55,-5.00,1.04,31.07,3.34,-36.69,1
0.39,0.00,0.92,3.60,-3.97,1.83,30.97,3.36,-37.30,1
0.38,0.00,0.92,2.69,-4.09,1.65,30.75,3.26,-37.38,1
0.39,-0.00,0.91,4.52,-3.60,1.71,30.73,3.74,-37.98,1
0.39,0.00,0.92,3.17,-4.82,1.65,30.71,3.53,-38.00,1
0.38,0.00,0.91,4.58,-4.39,0.24,30.88,3.59,-36.80,1
0.38,-0.00,0.91,4.21,-4.27,0.85,31.23,3.50,-36.50,1
0.38,-0.00,0.92,4.52,-3.72,2.01,30.98,3.14,-36.96,1
0.38,0.00,0.91,4.88,-3.66,1.77,30.91,3.36,-36.69,1
0.38,0.00,0.92,3.36,-4.52,0.49,31.08,3.67,-36.22,1
0.37,-0.00,0.92,2.20,-4.70,1.40,30.86,3.39,-36.01,1
0.38,0.00,0.92,3.60,-3.72,2.75,30.80,3.26,-36.51,1
0.37,0.00,0.92,3.97,-5.49,1.59,30.30,2.58,-36.67,1
0.37,0.00,0.92,3.60,-5.62,1.65,30.30,3.36,-36.33,1
0.37,0.00,0.92,4.82,-4.21,1.34,30.62,3.44,-36.60,1
0.37,-0.00,0.92,3.36,-5.37,1.83,30.33,3.04,-36.17,1
0.36,-0.00,0.92,3.66,-6.90,2.14,30.05,2.98,-35.91,1
0.36,0.00,0.93,4.27,-6.47,1.83,29.76,3.36,-37.56,1
0.36,0.00,0.92,2.38,-5.37,1.28,31.09,3.00,-36.85,1
0.35,0.01,0.93,2.32,-7.51,1.59,30.62,3.14,-37.65,1
0.34,0.01,0.92,7.02,-7.26,0.61,30.43,3.06,-36.56,1
0.35,0.01,0.93,3.48,-6.04,1.40,30.14,2.72,-37.41,1
0.34,0.00,0.93,4.15,-5.92,0.61,29.87,2.48,-38.04,1
0.33,-0.00,0.93,4.21,-6.96,1.65,29.86,2.95,-36.56,1
0.33,0.00,0.93,5.86,-8.18,2.01,29.65,3.39,-37.15,1
0.33,0.00,0.93,3.05,-6.16,1.10,29.96,3.12,-38.26,1
0.32,-0.00,0.93,7.02,-9.16,1.53,29.26,2.82,-37.79,1
0.33,0.00,0.94,8.12,-9.77,1.77,28.98,3.05,-37.93,1
0.31,-0.01,0.93,6.16,-8.30,0.24,29.31,3.32,-37.13,1
0.31,-0.01,0.94,9.22,-9.83,2.69,29.72,3.37,-37.78,1
0.30,-0.01,0.95,6.53,-8.36,1.10,29.61,3.50,-35.95,1
0.30,-0.03,0.94,11.54,-12.76,-0.37,28.74,3.64,-36.88,1
0.28,-0.03,0.96,4.88,-13.61,2.50,28.71,3.83,-37.50,1
0.26,-0.01,0.96,4.39,-13.79,1.71,28.25,3.28,-36.51,1
0.26,-0.02,0.95,13.31,-15.87,0.67,28.05,3.94,-37.13,1
0.24,-0.04,0.96,8.30,-19.35,3.05,28.37,3.67,-37.63,1
0.23,-0.03,0.98,10.38,-15.75,0.92,27.28,3.27,-37.89,1
0.22,-0.04,0.96,3.78,-10.93,-0.73,27.03,3.81,-37.94,1
0.20,-0.04,0.96,-0.55,-12.70,0.55,27.04,3.85,-38.06,1
0.20,-0.03,0.98,0.55,-13.85,1.04,26.79,3.89,-37.79,1
0.21,-0.04,0.97,-1.10,-13.37,-1.40,26.62,3.59,-37.74,1
0.18,-0.03,0.97,0.06,-12.88,-0.18,25.61,3.34,-37.79,1
0.17,-0.02,0.99,-0.18,-11.84,-0.31,25.79,3.74,-38.32,1
0.15,-0.01,0.97,-8.06,-9.89,-0.73,25.50,3.69,-37.85,1
0.15,-0.01,0.98,-4.21,-16.66,-2.69,25.49,3.56,-38.79,1
0.13,0.01,0.97,-18.19,-25.63,-3.54,24.69,3.00,-38.83,1
0.12,0.02,1.01,7.93,-12.70,-2.69,24.58,2.44,-38.88,1
0.11,0.01,0.98,6.96,-6.29,-0.61,24.52,3.10,-38.61,1
0.10,0.01,0.99,0.92,-11.72,-2.08,23.85,3.27,-38.78,1
0.09,0.01,0.99,6.16,-13.67,-1.65,23.19,3.31,-39.10,1
0.08,0.01,0.99,8.24,-6.47,0.79,22.89,2.87,-39.86,1
0.08,0.00,0.99,3.66,-8.18,1.83,23.06,3.20,-39.62,1
0.07,0.01,0.99,8.00,-8.97,0.12,23.01,2.65,-39.51,1
0.07,0.00,1.00,6.65,-6.84,2.87,22.84,2.94,-40.10,1
0.06,-0.00,0.99,7.14,-6.35,2.01,22.74,3.48,-38.62,1
0.06,-0.03,0.99,0.37,-5.55,3.72,22.69,3.32,-39.48,1
0.06,0.00,0.99,4.27,-5.86,2.62,22.36,2.91,-40.28,1
0.05,0.00,1.00,0.73,-3.42,2.14,22.42,3.31,-39.60,1
0.05,0.00,0.99,5.31,-4.09,1.22,22.58,2.99,-39.95,1
0.05,0.00,1.00,5.92,-3.42,0.67,22.68,2.73,-39.59,1
0.05,0.00,0.98,4.21,-2.32,0.79,22.35,2.62,-39.33,1
0.05,0.00,1.00,1.77,-2.38,2.01,23.25,3.17,-39.17,1
0.06,0.00,0.99,2.69,-2.93,1.22,23.28,3.14,-40.47,1
0.06,0.01,0.99,4.82,-3.30,1.65,22.38,3.05,-39.60,1
0.06,0.00,0.99,6.59,-3.23,0.73,22.73,3.02,-38.88,1
0.05,0.00,0.99,7.32,-3.54,1.89,23.68,2.94,-38.56,1
0.05,-0.00,1.00,4.27,-3.36,0.85,22.85,3.10,-39.23,1
0.05,-0.00,1.00,4.70,-4.21,0.85,23.19,3.12,-38.31,1
0.05,-0.00,0.99,1.59,-2.62,0.98,23.14,3.49,-38.90,1
0.05,0.00,1.01,3.17,-2.99,1.28,22.62,2.72,-38.34,1
0.05,0.00,0.99,0.49,-2.75,0.92,22.71,3.03,-39.51,1
0.06,0.00,1.00,4.21,-3.11,1.34,22.51,2.94,-39.47,1
0.06,0.00,0.99,4.58,-3.48,1.34,22.56,2.82,-39.89,1
0.06,0.01,0.99,3.48,-2.81,0.85,22.66,3.11,-39.64,1
0.05,0.00,0.99,3.17,-3.36,0.92,22.77,3.04,-39.79,1
0.05,0.01,1.00,3.54,-2.56,1.40,22.61,2.73,-38.85,1
0.06,0.01,0.99,5.19,-3.60,0.37,22.29,3.53,-39.43,1
0.05,0.00,1.00,4.52,-2.75,1.83,23.22,3.11,-39.88,1
0.05,0.00,0.99,4.33,-3.05,1.34,22.77,3.12,-39.10,1
0.05,0.00,1.00,2.20,-2.75,1.34,22.60,3.61,-38.61,1
0.06,0.00,0.99,3.54,-3.11,1.28,22.69,3.72,-38.90,1
0.05,0.01,0.99,2.62,-2.38,1.71,22.51,3.76,-38.98,1
0.05,0.00,1.00,4.09,-3.05,1.34,22.28,3.47,-38.70,1
0.05,0.01,0.99,1.40,-2.44,0.49,22.41,3.02,-39.95,1
0.05,0.01,1.00,4.03,-2.87,0.92,22.49,2.88,-38.90,1
0.06,0.01,0.99,4.70,-3.23,1.71,22.60,3.54,-39.32,1
0.06,0.02,1.00,3.72,-2.20,0.61,22.36,3.19,-39.12,1
0.05,0.01,0.99,2.75,-2.99,1.95,22.07,3.36,-39.88,1
0.06,0.01,0.99,3.23,-3.11,0.49,22.63,3.26,-39.93,1
0.06,0.01,0.99,2.69,-2.75,1.53,22.78,2.80,-39.79,1
0.06,0.01,1.00,2.32,-2.62,1.40,22.55,2.50,-39.78,1
0.05,0.01,0.99,6.10,-2.81,2.32,22.64,3.54,-39.18,1
0.06,0.01,0.99,3.78,-3.72,1.89,22.75,2.99,-38.84,1
0.06,0.01,0.99,5.13,-2.62,1.71,23.17,3.38,-39.72,1
0.05,0.01,0.99,4.88,-3.30,1.40,22.44,3.04,-39.11,1
0.05,0.01,0.99,4.03,-2.44,1.28,22.56,2.91,-40.42,1
0.06,0.01,1.00,6.35,-2.87,0.92,22.95,2.32,-39.58,1
0.06,0.01,1.00,3.11,-2.62,0.92,22.74,3.03,-39.97,1
0.05,0.01,0.99,4.21,-2.69,1.77,22.58,2.99,-39.26,1
0.06,0.00,1.00,6.23,-3.36,1.83,22.38,3.23,-39.22,1
0.06,0.01,0.99,5.43,-3.78,2.26,22.91,2.89,-39.26,1
0.05,0.01,0.99,5.43,-3.36,0.98,22.61,3.04,-39.31,1
0.06,-0.00,0.99,3.78,-3.48,1.22,22.45,3.47,-38.60,1
0.06,0.00,1.00,6.16,-4.03,1.65,22.91,2.65,-40.05,1
0.05,0.00,0.99,4.64,-3.48,2.38,22.78,2.80,-39.38,1
0.05,0.00,1.00,5.49,-3.17,2.81,22.66,2.94,-39.49,1
0.09,0.01,0.99,5.62,-4.46,5.92,22.55,3.19,-39.14,1
0.05,-0.01,0.99,6.53,-5.07,2.81,22.89,3.50,-39.37,1
0.04,0.01,0.98,1.89,-8.36,5.98,22.86,3.39,-39.17,1
0.04,-0.01,0.99,3.97,-12.88,-0.49,22.69,3.11,-39.66,1
0.03,-0.00,1.01,3.05,-7.32,1.40,22.25,3.44,-39.79,1
0.03,-0.00,0.99,6.77,-5.19,1.89,21.47,3.20,-38.17,1
0.02,-0.01,1.00,5.80,-6.41,3.60,21.64,3.26,-38.93,1
0.01,-0.00,0.99,4.94,-9.16,6.71,21.79,2.89,-38.87,1
0.01,-0.02,1.00,4.03,-12.33,7.14,21.56,3.02,-39.11,1
0.00,0.00,0.99,10.13,-15.63,6.23,21.66,3.26,-39.38,1
-0.01,-0.00,0.99,14.83,-17.52,2.75,21.80,3.27,-39.84,1
-0.04,-0.04,1.00,0.92,-13.67,-1.28,21.12,3.25,-38.55,1
-0.04,-0.02,1.00,1.59,-15.08,0.67,20.57,3.59,-39.10,1
-0.05,-0.01,1.00,1.53,-12.88,0.92,20.61,2.62,-39.36,1
-0.06,0.01,0.97,1.46,-7.39,0.00,20.26,3.42,-38.88,1
-0.07,-0.01,1.00,4.76,-7.39,2.14,20.02,3.60,-39.61,1
-0.06,-0.01,0.99,2.08,-4.03,1.65,20.14,3.76,-39.33,1
-0.06,-0.00,0.99,5.74,-6.47,1.16,19.98,3.52,-39.54,1
-0.07,-0.01,0.99,3.42,-4.70,1.65,20.04,3.23,-40.52,1
-0.07,-0.01,1.00,2.44,-5.74,1.16,20.09,3.64,-39.37,1
-0.07,-0.00,0.99,2.75,-5.92,1.65,19.57,3.05,-39.86,1
-0.08,-0.00,1.00,4.39,-5.13,2.87,19.42,3.64,-39.90,1
-0.08,0.00,0.99,-5.49,-8.18,2.38,19.47,3.34,-40.66,1
-0.09,0.01,1.00,-10.07,-4.39,3.23,19.51,3.67,-39.69,1
-0.08,0.02,0.99,-2.01,-4.94,2.62,19.54,2.72,-40.08,1
-0.09,0.02,0.99,0.79,-7.51,3.97,19.38,2.95,-40.41,1
-0.09,0.03,0.98,1.65,-3.97,1.04,19.08,2.77,-39.47,1
-0.11,0.02,0.99,4.27,-5.13,1.22,19.40,2.49,-40.12,1
-0.11,0.02,0.98,5.92,-9.09,3.42,18.68,2.64,-40.75,1
-0.10,0.03,0.98,2.56,-8.24,1.59,18.30,2.55,-40.32,1
-0.12,0.03,0.98,-5.31,-9.77,1.77,19.15,3.02,-40.42,1
-0.12,0.04,0.98,-19.04,-12.82,0.79,18.60,2.26,-39.73,1
-0.13,0.06,1.00,-3.36,-5.43,1.65,18.35,1.42,-40.00,1
-0.14,0.05,0.98,7.93,-8.00,3.60,18.68,2.11,-39.25,1
-0.14,0.05,0.99,5.13,-4.76,3.11,18.43,2.01,-40.17,1
-0.14,0.06,0.98,1.28,-5.86,1.77,18.77,1.50,-39.93,1
-0.15,0.07,0.98,-7.39,-8.00,4.27,18.47,1.34,-40.55,1
-0.15,0.08,0.99,-8.85,-7.08,3.60,17.50,1.42,-40.75,1
-0.14,0.09,0.98,-0.06,-8.54,3.17,18.40,0.50,-41.52,1
-0.17,0.09,0.97,-1.95,-5.07,1.83,18.18,0.76,-40.84,1
-0.16,0.09,0.98,4.39,-6.29,2.14,18.31,0.46,-40.50,1
-0.17,0.11,0.96,-2.01,-6.71,4.33,17.71,0.49,-40.17,1
-0.17,0.10,0.97,-2.08,-3.05,2.01,18.40,0.17,-41.15,1
-0.17,0.15,0.97,-12.02,-6.90,6.53,18.21,-0.09,-40.89,1
-0.17,0.12,0.96,-0.98,-2.20,0.49,18.03,-0.22,-41.48,1
-0.17,0.14,0.98,-14.77,-0.43,1.28,18.19,-0.67,-41.25,1
-0.17,0.17,0.95,-8.61,-0.98,2.75,18.33,-1.82,-41.20,1
-0.16,0.18,0.97,6.29,3.72,-0.06,18.70,-2.36,-40.94,1
-0.16,0.17,0.96,8.67,0.12,1.59,18.79,-1.48,-41.66,1
-0.16,0.17,0.95,3.48,3.17,0.37,18.85,-1.79,-41.63,1
-0.15,0.17,1.00,14.65,11.23,-3.72,19.21,-1.64,-41.30,1
-0.13,0.16,0.97,7.81,9.83,-0.24,19.62,-2.11,-41.09,1
-0.12,0.14,0.94,10.74,19.65,-4.64,20.17,-1.72,-39.56,1
-0.10,0.15,1.00,10.86,12.57,-1.22,20.21,-1.54,-40.71,1
-0.08,0.14,0.97,16.36,4.58,-1.16,20.43,-0.90,-40.03,1
-0.08,0.14,1.01,2.08,9.34,-0.79,20.61,-0.82,-40.73,1
-0.08,0.15,0.98,9.28,9.95,-0.06,21.07,-1.03,-40.43,1
-0.03,0.12,0.99,10.44,27.22,-2.01,21.63,-0.59,-39.90,1
-0.00,0.12,0.99,6.35,13.79,-0.61,21.79,-0.70,-40.75,1
0.00,0.11,0.97,5.07,16.78,-2.99,22.20,-0.20,-39.06,1
0.02,0.13,0.96,-6.90,13.37,-2.87,22.95,-1.07,-41.36,1
0.05,0.15,1.03,4.88,16.11,0.49,23.49,-1.09,-40.73,1
0.05,0.14,0.94,5.31,6.47,-0.12,24.06,-1.44,-39.64,1
0.07,0.14,0.98,-4.33,10.86,-0.31,24.34,-1.10,-40.77,1
0.08,0.14,0.98,0.00,3.78,0.12,23.88,-0.45,-40.39,1
0.08,0.15,0.97,-6.04,4.94,1.77,24.84,-1.33,-40.59,1
0.11,0.17,0.97,-11.60,19.35,-5.62,25.18,-1.89,-40.04,1
0.12,0.19,0.96,-13.79,22.77,-4.46,25.55,-2.60,-40.42,1
0.14,0.20,0.99,-0.55,2.20,2.32,25.24,-2.71,-39.47,1
0.14,0.19,0.94,-5.25,0.24,1.71,25.98,-3.10,-39.76,1
0.14,0.23,0.97,-7.26,4.76,-1.22,26.53,-3.22,-39.93,1
0.16,0.23,0.96,-3.60,-2.44,0.92,26.45,-3.20,-41.03,1
0.14,0.23,0.94,-9.16,-1.46,0.37,26.28,-3.50,-40.49,1
0.16,0.25,0.96,-2.32,-1.40,-0.67,26.37,-4.42,-40.53,1
0.15,0.25,0.94,4.58,-3.66,1.83,26.38,-3.76,-40.19,1
0.15,0.25,0.95,7.75,-3.85,0.61,26.46,-4.19,-40.56,1
0.15,0.24,0.95,4.52,-3.54,1.71,26.81,-4.05,-40.33,1
0.15,0.25,0.94,3.78,-3.54,1.28,26.60,-3.80,-39.98,1
0.15,0.25,0.95,4.27,-3.78,1.40,26.49,-3.39,-41.30,1
0.15,0.24,0.94,3.36,-3.42,0.67,26.39,-4.03,-40.38,1
0.15,0.25,0.95,5.07,-3.30,1.53,26.03,-3.92,-40.56,1
0.15,0.24,0.94,6.10,-4.27,0.98,26.17,-3.81,-40.42,1
0.15,0.25,0.95,1.04,-3.54,1.04,26.11,-3.82,-40.03,1
0.14,0.25,0.94,2.44,-4.33,1.77,26.45,-3.83,-40.61,1
0.15,0.25,0.95,9.64,-3.30,0.43,26.32,-3.91,-41.92,1
0.15,0.22,0.96,38.15,-3.78,-2.56,25.99,-3.33,-41.21,1
0.14,0.19,0.96,48.28,-6.53,-2.08,26.28,-2.48,-39.82,1
0.14,0.14,0.97,42.05,-6.29,-1.65,25.27,-1.33,-40.15,1
0.13,0.12,0.97,18.74,-7.08,0.18,25.04,-0.26,-39.49,1
0.13,0.10,0.97,20.20,-6.47,0.31,25.04,0.96,-39.42,1
0.13,0.08,0.98,27.34,-6.16,-0.98,24.76,1.23,-38.88,1
0.13,0.05,0.99,40.41,-3.97,-3.23,25.15,1.84,-40.06,1
0.14,0.01,0.99,29.24,3.91,-5.13,24.51,2.95,-38.59,1
0.14,-0.02,1.00,22.22,-2.44,-1.34,25.23,3.88,-37.77,1
0.13,-0.03,0.97,15.81,-2.99,1.71,25.26,3.91,-38.28,1
0.14,-0.05,0.99,23.13,-3.60,-1.04,24.80,4.31,-38.07,1
0.13,-0.07,0.98,19.17,-5.55,-1.46,25.44,5.07,-38.56,1
0.13,-0.09,0.99,27.34,-7.02,-2.87,25.00,4.76,-37.56,1
0.13,-0.11,0.97,25.76,-6.53,-2.26,24.55,5.66,-37.48,1
0.11,-0.13,0.98,31.92,-10.44,-3.48,24.39,6.67,-38.27,1
0.10,-0.18,0.97,30.94,-10.50,-3.23,23.99,7.28,-35.44,1
0.11,-0.18,0.97,5.55,-3.91,0.24,24.44,7.31,-34.94,1
0.11,-0.19,0.97,1.40,-2.99,1.10,24.69,7.07,-36.41,1
0.11,-0.19,0.97,6.04,-3.23,2.56,24.35,7.52,-36.94,1
0.11,-0.18,0.98,2.38,-2.44,2.26,24.16,6.85,-36.65,1
0.11,-0.18,0.97,5.25,-1.77,1.04,24.16,7.47,-35.66,1
0.11,-0.18,0.98,-0.43,-2.32,1.46,23.83,6.65,-35.96,1
0.11,-0.18,0.97,4.76,-3.60,1.65,24.32,8.00,-36.38,1
0.11,-0.18,0.97,-2.32,-1.71,1.59,24.16,7.17,-37.22,1
0.11,-0.17,0.97,2.69,-3.97,1.34,24.37,7.07,-36.00,1
0.11,-0.17,0.98,-0.55,-3.17,1.77,24.15,6.60,-35.88,1
0.11,-0.17,0.98,2.32,-3.48,1.46,24.01,7.52,-36.50,1
0.11,-0.17,0.97,5.07,-3.91,-0.12,23.95,6.79,-36.63,1
0.11,-0.17,0.98,3.60,-5.25,2.20,24.10,7.30,-37.32,1
0.11,-0.16,0.97,2.56,-3.60,2.38,24.21,7.60,-37.18,1
0.10,-0.16,0.98,-1.34,-4.64,1.28,24.24,7.07,-37.02,1
0.10,-0.16,0.98,-2.08,-6.77,1.59,23.85,7.30,-36.76,1
0.10,-0.14,0.97,1.10,-4.76,1.46,23.91,6.52,-37.39,1
0.09,-0.15,0.99,-0.43,-6.41,0.73,24.21,6.48,-37.82,1
0.09,-0.14,0.98,2.44,-5.55,1.46,24.26,6.32,-36.71,1
0.09,-0.15,0.98,3.17,-8.30,0.24,23.44,6.27,-37.28,1
0.08,-0.14,0.98,3.85,-6.47,1.16,23.69,6.65,-37.04,1
0.09,-0.16,0.98,-0.92,-9.77,2.32,23.46,6.47,-37.21,1
0.07,-0.14,0.97,4.82,-17.82,4.15,23.17,6.38,-37.39,1
0.04,-0.14,1.00,2.26,-18.01,2.50,23.18,6.26,-37.72,1
0.05,-0.13,0.98,1.22,-6.41,0.24,23.11,6.62,-37.60,1
0.04,-0.13,0.98,-1.16,-6.71,1.16,22.60,5.65,-37.11,1
0.03,-0.12,0.98,4.88,-14.40,3.11,23.03,5.90,-36.84,1
0.01,-0.12,1.00,-4.94,-12.57,2.08,22.47,6.36,-37.32,1
0.02,-0.12,0.99,-7.51,-9.95,3.36,21.90,6.35,-37.85,1
-0.01,-0.11,0.99,-11.78,-12.33,7.26,21.80,5.25,-37.92,1
-0.02,-0.07,0.99,-16.72,-14.71,5.00,21.37,5.09,-37.26,1
-0.03,-0.07,0.98,-5.13,-14.71,5.19,20.79,5.42,-38.40,1
-0.03,-0.07,0.99,-10.31,-12.27,5.00,20.84,4.87,-39.04,1
-0.03,-0.03,1.00,-10.25,-13.79,5.19,20.74,4.48,-39.14,1
-0.04,-0.04,1.00,-9.09,-6.90,2.44,20.41,3.97,-38.60,1
-0.07,-0.01,1.00,-22.40,-14.28,1.53,20.31,3.32,-39.23,1
-0.08,0.00,0.97,-13.37,-18.68,4.58,20.32,2.83,-39.23,1
-0.09,0.03,0.98,-6.53,-12.76,2.50,20.36,2.92,-40.00,1
-0.10,0.04,1.00,-10.38,-11.96,3.54,19.60,2.51,-41.44,1
-0.11,0.05,0.99,1.04,-12.39,2.87,19.12,1.21,-40.31,1
-0.12,0.04,0.98,1.65,-6.59,1.34,19.32,1.51,-40.69,1
-0.12,0.05,0.98,-0.92,-9.03,2.50,19.12,2.25,-40.17,1
-0.13,0.05,0.98,1.89,-5.86,3.23,18.76,1.66,-40.43,1
-0.13,0.05,0.98,2.32,-4.21,1.10,19.80,1.78,-40.06,1
-0.13,0.05,0.99,3.23,-3.97,1.95,19.31,1.38,-40.89,1
-0.13,0.06,0.99,2.87,-3.11,1.22,19.07,1.37,-39.88,1
-0.14,0.05,0.98,4.27,-5.86,2.38,19.03,1.59,-40.53,1
-0.14,0.06,0.98,3.11,-3.66,1.22,18.97,1.56,-41.21,1
-0.13,0.06,0.99,3.54,-5.13,2.14,19.02,1.35,-40.88,1
-0.14,0.05,0.98,3.54,-4.03,2.32,18.46,1.29,-39.99,1
-0.14,0.06,0.99,4.39,-3.17,1.46,18.99,1.10,-41.21,1
-0.14,0.06,0.98,1.28,-1.22,0.18,19.02,0.84,-41.56,1
-0.14,0.06,0.99,4.33,-3.91,1.59,18.77,1.66,-40.16,1
-0.14,0.06,0.98,4.39,-3.05,0.98,18.51,1.66,-41.27,1
-0.14,0.06,0.99,4.52,-3.66,0.85,18.96,0.95,-41.20,1
-0.14,0.06,0.98,3.60,-3.23,1.77,18.87,1.27,-41.21,1
-0.14,0.06,0.98,3.05,-1.89,0.79,19.20,1.03,-41.98,1
-0.14,0.06,0.98,4.76,-3.78,1.59,19.01,2.10,-41.41,1
-0.14,0.06,0.98,3.23,-2.44,1.16,19.38,1.27,-40.38,1
-0.14,0.06,0.98,3.91,-3.91,1.22,18.87,1.27,-41.26,1
-0.14,0.06,0.98,4.33,-3.42,1.71,18.63,1.62,-41.39,1
-0.14,0.06,0.98,3.66,-2.01,0.61,18.81,1.01,-41.26,1
-0.14,0.06,0.97,4.52,-3.72,1.46,18.40,1.43,-41.19,1
-0.14,0.06,0.99,3.66,-2.99,1.65,18.71,1.22,-41.08,1
-0.14,0.06,0.98,3.97,-3.36,1.22,18.69,1.33,-40.37,1
-0.14,0.06,0.98,2.93,-2.87,0.79,18.80,0.22,-40.94,1
-0.14,0.06,0.98,4.70,-3.05,1.28,18.14,0.84,-39.81,1
-0.14,0.06,0.98,4.39,-2.69,0.00,18.49,1.06,-40.30,1
-0.14,0.06,0.98,3.42,-3.36,1.40,18.62,0.87,-40.71,1
-0.14,0.06,0.98,2.32,-0.79,0.55,18.92,0.79,-40.89,1
-0.14,0.06,0.98,3.85,-3.05,0.85,18.76,0.79,-41.24,1
-0.14,0.06,0.98,2.75,-1.77,0.85,18.53,0.67,-40.93,1
-0.14,0.07,0.99,3.30,-1.77,0.55,18.79,0.78,-41.11,1
-0.14,0.05,0.97,2.44,-2.26,1.65,18.81,0.63,-40.93,1
-0.14,0.07,0.99,2.08,-0.98,1.22,18.70,1.07,-41.05,1
-0.14,0.08,0.97,4.94,-2.50,1.16,19.17,0.77,-40.08,1
-0.13,0.07,0.98,3.11,1.95,0.67,18.82,1.29,-40.53,1
-0.13,0.09,0.98,7.57,0.55,0.24,19.03,0.72,-39.92,1
-0.12,0.07,0.98,8.18,3.36,-2.38,19.09,1.20,-40.98,1
-0.12,0.07,0.99,12.88,5.37,0.67,19.31,0.68,-39.33,1
-0.10,0.04,0.99,13.67,11.47,0.79,19.93,0.96,-39.22,1
-0.08,0.05,1.00,8.54,13.92,1.46,20.56,1.46,-39.87,1
-0.07,0.04,0.98,2.38,8.00,-0.98,21.13,1.43,-40.48,1
-0.06,0.02,0.98,5.25,16.30,-1.53,21.13,1.60,-40.09,1
-0.03,0.05,1.00,2.56,13.55,1.95,21.78,1.05,-39.49,1
-0.01,0.05,0.97,-1.04,17.82,0.92,21.78,1.37,-39.93,1
-0.00,0.06,0.98,7.87,23.13,-0.85,22.42,1.06,-39.44,1
0.02,0.05,0.99,-2.20,14.59,-1.77,22.85,1.07,-40.50,1
0.04,0.07,1.00,-0.73,20.32,1.16,23.71,1.01,-40.21,1
0.06,0.06,0.98,5.13,11.72,-2.32,23.91,0.70,-40.56,1
0.08,0.07,0.99,-0.61,16.85,-1.16,24.19,0.76,-39.89,1
0.11,0.07,0.98,3.66,23.50,-4.21,24.73,0.46,-40.20,1
0.13,0.08,0.99,1.83,19.41,-3.17,26.03,0.38,-38.95,1
0.15,0.07,0.97,-2.81,17.09,-3.66,25.99,0.66,-39.10,1
0.18,0.08,0.99,-0.92,20.87,-2.93,26.92,0.95,-39.66,1
0.18,0.09,0.97,2.14,-1.40,0.00,26.65,0.72,-39.65,1
0.20,0.09,0.99,-2.56,11.96,-3.48,26.73,-0.16,-38.76,1
0.21,0.07,0.95,1.59,5.00,-2.56,27.04,0.59,-39.67,1
0.21,0.09,0.95,-3.17,6.53,-0.55,27.94,0.22,-38.95,1
0.22,0.09,0.97,7.81,-2.93,2.01,27.45,0.48,-39.53,1
0.22,0.09,0.94,2.75,-0.31,1.10,28.00,0.60,-39.76,1
0.22,0.10,0.96,-4.76,5.07,-0.61,27.86,-0.29,-39.16,1
0.24,0.10,0.95,-3.54,8.24,-1.95,28.21,-0.09,-40.30,1
0.25,0.12,0.96,0.49,8.24,-1.95,28.67,-0.65,-39.54,1
0.27,0.11,0.97,3.66,0.24,-1.40,28.63,-0.56,-38.83,1
0.26,0.12,0.94,2.93,-3.11,1.46,28.31,-0.52,-39.39,1
0.26,0.12,0.95,0.98,-5.19,0.85,28.54,-0.57,-39.81,1
0.25,0.13,0.95,-1.46,-6.47,3.11,28.61,-1.00,-38.82,1
0.25,0.14,0.95,-2.26,-4.64,3.48,28.33,-1.26,-39.48,1
0.24,0.16,0.95,-7.81,-9.64,5.19,28.67,-1.33,-39.95,1
0.24,0.16,0.96,1.71,-6.96,2.44,28.11,-2.14,-39.92,1
0.22,0.16,0.95,-33.63,-15.56,4.76,28.21,-1.99,-39.51,1
0.21,0.22,0.94,-17.33,-9.28,6.84,27.61,-3.15,-40.14,1
0.22,0.22,0.94,6.04,-16.78,6.90,27.83,-2.94,-39.58,1
0.18,0.20,0.91,-11.17,-22.09,11.11,26.71,-3.81,-40.42,1
0.15,0.28,0.97,-48.71,-22.89,14.34,26.61,-5.38,-41.64,1
0.14,0.29,0.93,-0.12,-14.34,8.24,26.44,-5.52,-41.25,1
0.13,0.28,0.93,5.43,-15.01,8.36,25.68,-5.19,-41.46,1
0.11,0.29,0.95,4.03,-18.19,8.79,25.70,-5.29,-41.22,1
0.09,0.29,0.94,7.57,-12.63,6.29,24.55,-5.11,-41.98,1
0.08,0.29,0.96,15.01,-9.28,4.58,24.88,-5.19,-41.74,1
0.07,0.25,0.94,30.46,-17.46,6.41,24.19,-5.04,-41.39,1
0.06,0.20,0.98,92.83,-23.19,1.04,23.75,-3.21,-40.66,1
0.03,0.12,0.97,42.97,-9.70,1.65,23.17,-0.84,-40.33,1
0.04,0.12,0.96,22.95,-5.92,1.10,23.47,0.20,-40.20,1
0.03,0.04,1.02,80.75,-9.03,-4.46,22.78,1.70,-40.28,1
0.03,0.00,0.95,65.49,-5.19,-3.66,22.97,3.32,-39.50,1
0.03,-0.09,1.00,72.27,-8.48,-3.66,22.69,5.10,-38.27,1
0.01,-0.16,1.00,68.91,-8.91,-4.76,22.72,5.99,-37.56,1
0.02,-0.18,0.97,19.59,-4.33,-0.55,22.49,6.91,-36.45,1
0.01,-0.19,0.99,1.28,-6.90,0.61,22.52,7.69,-37.24,1
0.01,-0.18,0.97,2.69,-12.51,0.55,21.80,7.10,-37.13,1
-0.00,-0.19,0.98,-2.08,-9.77,0.73,22.02,7.42,-36.68,1
-0.02,-0.16,0.97,-40.16,-17.27,0.06,21.48,6.19,-36.56,1
-0.03,-0.09,1.00,-81.42,-25.27,2.99,20.73,3.91,-38.17,1
-0.05,-0.00,0.98,-39.06,-12.02,4.52,21.29,2.61,-39.67,1
-0.06,0.07,0.97,-50.05,-12.15,9.77,20.57,1.46,-40.38,1
-0.08,0.10,0.99,-41.81,-15.69,6.90,20.52,0.09,-39.75,1
-0.09,0.16,0.97,-39.12,-14.47,4.15,19.68,-1.83,-41.66,1
-0.11,0.18,0.97,-15.75,-9.83,7.51,19.79,-2.62,-42.03,1
-0.11,0.19,0.96,-25.39,-7.26,6.23,19.41,-3.27,-41.41,1
-0.12,0.22,0.97,-7.63,-4.58,3.23,19.43,-3.70,-42.07,1
-0.11,0.25,0.95,-40.95,-6.41,4.58,19.87,-4.98,-41.99,1
-0.11,0.28,0.95,3.97,4.03,-2.93,19.98,-5.16,-42.30,1
-0.11,0.27,0.94,41.63,7.45,-5.31,20.28,-4.66,-42.97,1
-0.09,0.24,0.94,38.76,8.97,-4.21,20.54,-3.59,-43.12,1
-0.07,0.18,0.99,58.53,17.76,-5.25,20.69,-2.19,-40.61,1
-0.06,0.15,0.94,45.35,8.00,-4.76,20.86,-0.84,-40.71,1
-0.05,0.07,1.02,96.37,5.07,-4.15,21.35,1.05,-39.90,1
-0.03,-0.01,0.98,66.89,3.91,-2.08,21.73,2.94,-38.42,1
-0.04,-0.08,0.99,61.77,-8.12,-3.30,21.45,4.72,-39.00,1
-0.04,-0.14,0.99,66.28,-10.93,-8.91,20.50,5.53,-38.46,1
-0.04,-0.19,0.95,80.69,-12.15,-11.35,21.00,7.78,-37.23,1
-0.05,-0.25,0.96,26.86,0.31,-2.44,20.53,8.91,-35.45,1
-0.05,-0.26,0.96,10.86,-0.98,0.98,20.35,9.56,-35.31,1
-0.05,-0.27,0.97,3.42,0.55,4.33,20.74,8.73,-34.94,1
-0.05,-0.24,0.97,-18.01,5.86,6.84,21.19,8.53,-35.16,1
-0.02,-0.21,1.00,-53.04,26.31,14.77,20.80,7.69,-36.33,1
-0.00,-0.12,0.99,-74.34,41.63,10.68,22.27,6.09,-36.73,1
0.05,-0.07,0.97,-27.65,38.27,5.62,23.17,5.46,-38.16,1
0.08,-0.07,1.01,-2.01,11.47,-0.24,24.04,4.76,-38.04,1
0.10,-0.04,0.97,-22.89,25.94,0.73,24.30,4.81,-39.18,1
0.15,-0.01,0.99,-17.76,61.71,-9.95,25.66,3.71,-38.16,1
0.19,-0.04,0.98,-3.72,9.03,-0.73,25.84,2.97,-38.49,1
0.18,0.02,0.94,-34.36,2.69,3.42,26.33,2.59,-38.18,1
0.19,0.04,1.01,-30.21,-13.00,4.39,26.81,1.76,-39.05,1
0.16,0.06,0.92,-9.58,-25.39,9.09,26.23,1.23,-39.18,1
0.13,0.06,0.96,13.79,-44.68,10.01,25.67,1.20,-39.83,1
0.06,0.04,1.00,30.82,-71.11,13.06,23.75,1.73,-39.39,1
0.02,0.03,1.03,6.23,-35.77,5.74,22.85,1.88,-39.16,1
0.00,0.02,0.98,13.85,-45.17,9.83,21.97,2.27,-39.97,1
-0.05,0.02,1.00,5.25,-26.79,5.92,20.98,2.73,-40.21,1
-0.05,0.02,1.01,-0.31,-8.42,1.16,21.14,2.69,-40.32,1
-0.05,0.02,0.99,-10.56,2.81,0.37,20.97,2.23,-40.21,1
-0.05,0.04,0.99,-9.52,10.07,-1.77,20.81,1.60,-40.54,1
-0.02,0.07,1.02,-14.89,32.23,-8.61,21.44,1.31,-40.75,1
0.03,0.09,1.00,-10.86,36.13,-3.78,22.45,0.27,-39.71,1
0.05,0.09,0.97,-1.28,14.47,0.98,23.55,0.23,-40.64,1
0.07,0.10,0.96,-15.44,33.02,-6.77,24.33,-0.45,-40.43,1
0.12,0.12,1.05,3.30,31.07,-0.92,24.99,-1.17,-40.59,1
0.12,0.10,0.94,10.99,8.42,-3.42,25.68,-0.46,-38.92,1
0.15,0.11,1.00,-3.78,12.63,-1.89,26.38,0.49,-39.58,1
0.15,0.10,0.96,21.36,-4.58,1.40,25.70,0.15,-38.76,1
0.14,0.07,0.97,28.32,-14.10,4.94,25.44,1.34,-39.43,1
0.11,0.04,0.95,70.25,-46.75,3.42,25.07,1.34,-38.75,1
0.07,-0.04,0.98,66.35,-53.10,0.61,24.01,2.88,-39.22,1
0.04,-0.06,1.01,24.11,-22.34,0.73,23.28,3.63,-38.59,1
0.01,-0.09,0.97,31.62,-27.65,1.65,22.38,4.52,-38.22,1
-0.01,-0.10,0.98,18.55,-23.80,0.85,22.61,5.74,-38.93,1
-0.02,-0.12,1.00,0.31,-10.93,-1.22,21.61,5.27,-37.84,1
-0.03,-0.10,1.00,-8.79,-3.42,1.89,21.80,4.66,-39.07,1
-0.03,-0.08,0.99,-59.69,-1.16,1.95,21.58,3.82,-39.04,1
-0.02,0.04,1.02,-94.36,7.02,5.68,21.51,1.64,-40.20,1
-0.02,0.10,0.99,-49.56,1.34,3.30,21.98,-0.66,-39.69,1
0.01,0.18,0.97,-26.67,23.38,-2.62,22.40,-1.72,-40.28,1
0.01,0.19,0.96,-14.53,22.46,-2.69,22.77,-2.01,-41.36,1
0.06,0.18,0.98,3.60,31.74,-5.86,23.58,-2.34,-41.33,1
0.10,0.17,0.99,5.98,26.61,-2.38,24.33,-2.38,-40.89,1
0.11,0.18,0.95,-26.73,17.52,-1.65,25.33,-2.86,-40.30,1
0.13,0.22,0.94,-25.82,15.14,0.12,25.88,-3.56,-40.61,1
0.15,0.25,0.96,-10.93,12.94,-0.55,26.62,-4.35,-41.13,1
0.19,0.26,0.93,-23.13,5.68,-2.20,27.01,-4.24,-40.26,1
0.19,0.29,0.93,-17.21,18.25,-7.93,26.88,-4.91,-41.10,1
0.19,0.29,0.91,-0.85,0.61,-0.73,27.27,-4.79,-40.31,1
0.19,0.30,0.92,-2.38,0.98,0.67,27.27,-5.19,-40.58,1
0.19,0.29,0.90,27.04,-10.93,0.61,27.48,-5.44,-40.77,1
0.18,0.28,0.95,19.41,-16.85,6.77,26.77,-4.96,-40.50,1
0.14,0.28,0.91,7.63,-31.56,11.11,26.73,-5.13,-40.78,1
0.11,0.26,0.93,-0.85,-52.98,12.82,25.51,-4.38,-41.92,1
0.08,0.26,0.99,19.10,-20.69,4.88,24.29,-4.15,-41.31,1
0.06,0.24,0.96,17.88,-27.53,7.87,23.94,-4.19,-42.32,1
0.01,0.20,0.96,35.77,-37.41,10.44,23.16,-3.54,-40.64,1
-0.01,0.19,0.98,11.54,-22.58,7.87,22.45,-3.25,-41.28,1
-0.02,0.19,0.95,6.41,-23.38,9.09,21.78,-2.66,-41.53,1
-0.05,0.18,0.97,7.93,-28.32,8.54,21.48,-3.34,-41.10,1
-0.08,0.20,1.00,-5.92,-11.41,0.37,21.14,-3.23,-42.05,1
-0.08,0.21,0.98,-11.60,-1.40,0.61,20.48,-3.43,-42.09,1
-0.07,0.21,0.95,-4.52,0.67,-2.75,20.73,-4.33,-41.56,1
-0.07,0.23,0.98,5.74,2.01,0.98,20.54,-3.67,-42.63,1
-0.04,0.21,0.96,17.82,21.36,-6.59,21.03,-3.20,-41.72,1
-0.03,0.19,0.96,38.33,24.35,-8.06,21.55,-2.12,-41.83,1
0.02,0.16,1.00,34.36,42.60,-6.10,22.51,-1.26,-40.33,1
0.04,0.11,0.98,59.45,9.28,-5.19,22.69,0.07,-40.17,1
0.05,0.05,0.98,41.08,26.18,-0.67,23.03,1.35,-39.51,1
0.11,0.04,1.05,56.40,55.85,-15.44,24.40,2.71,-39.17,1
0.14,-0.05,0.94,49.13,19.53,-10.07,25.09,4.16,-37.73,1
0.15,-0.06,0.96,19.65,12.45,-0.49,26.07,4.42,-38.43,1
0.19,-0.08,0.95,23.50,13.85,-5.49,25.84,5.09,-37.63,1
0.18,-0.10,0.95,19.04,8.30,-3.91,26.33,5.46,-36.77,1
0.21,-0.07,0.97,-3.97,9.64,-2.56,26.76,4.91,-37.24,1
0.21,-0.09,0.96,1.89,-2.81,0.79,27.03,4.31,-36.65,1
0.20,-0.07,0.98,-17.15,-5.07,5.00,26.20,4.22,-36.89,1
0.20,-0.03,0.96,-27.89,-14.59,7.93,26.31,3.42,-37.70,1
0.18,-0.00,0.98,-28.75,-25.88,9.64,26.25,2.98,-38.68,1
0.15,0.01,0.97,-12.33,-27.40,13.24,25.28,2.29,-39.20,1
0.12,0.06,0.96,-37.17,-32.04,13.31,25.34,1.28,-39.10,1
0.09,0.09,1.00,4.88,-36.68,9.46,23.93,1.23,-40.71,1
0.05,0.11,0.97,0.00,-29.79,12.02,23.38,0.88,-40.28,1
0.01,0.09,0.97,-12.63,-32.65,10.74,23.14,1.49,-40.28,1
0.01,0.12,1.02,-32.35,-28.14,9.28,21.98,0.31,-40.30,1
-0.03,0.15,0.97,-28.50,-21.48,10.01,22.41,-0.71,-40.73,1
-0.04,0.19,0.97,-15.20,-21.91,7.93,21.26,-1.99,-42.02,1
-0.06,0.19,0.98,5.98,-16.42,8.48,21.09,-2.00,-42.20,1
-0.07,0.19,0.99,3.91,-6.71,5.25,20.65,-1.93,-41.71,1
-0.07,0.19,0.97,0.49,-4.39,2.50,20.53,-1.64,-42.14,1
-0.07,0.19,0.96,6.90,1.34,-2.01,20.37,-1.83,-42.98,1
-0.06,0.17,0.99,13.92,10.62,-4.70,20.86,-1.59,-40.97,1
-0.05,0.18,0.97,8.91,27.77,-10.25,20.97,-1.79,-41.98,1
0.02,0.17,1.00,10.62,48.83,-8.18,22.01,-1.50,-40.89,1
0.02,0.16,0.96,13.31,2.20,-3.54,22.18,-1.44,-41.99,1
0.05,0.17,1.02,17.46,43.15,-9.16,23.10,-1.17,-40.08,1
0.10,0.12,0.93,23.01,29.36,-8.79,23.83,-0.43,-39.97,1
0.11,0.10,0.99,15.56,15.75,-2.26,24.38,0.17,-40.44,1
0.13,0.11,0.98,11.41,20.51,-5.62,25.52,0.73,-40.01,1
0.16,0.10,0.99,7.45,24.78,-5.37,25.83,1.09,-39.76,1
0.17,0.07,0.97,22.09,3.85,-4.33,25.98,1.12,-40.20,1
0.18,0.08,0.97,7.45,7.02,-3.60,26.18,1.43,-39.12,1
0.19,0.07,0.96,2.20,0.85,-0.92,26.44,1.40,-39.03,1
0.19,0.07,0.98,0.98,-7.20,3.60,26.39,1.14,-39.87,1
0.18,0.10,0.96,-23.44,-12.51,7.08,26.35,0.31,-39.87,1
0.14,0.11,0.96,-6.35,-38.21,19.29,25.84,-0.48,-40.28,1
0.11,0.16,0.99,-26.61,-36.25,15.38,24.84,-0.90,-40.44,1
0.09,0.13,0.97,6.47,-28.14,13.85,23.89,-1.22,-40.50,1
0.05,0.15,1.00,16.42,-33.69,15.63,23.00,-0.96,-40.25,1
0.01,0.11,0.96,21.00,-33.02,16.42,22.12,-0.33,-41.04,1
-0.02,0.14,1.02,-5.19,-33.57,7.51,21.53,-0.50,-40.28,1
-0.04,0.14,0.99,10.25,-23.50,7.45,21.18,0.06,-41.33,1
-0.05,0.12,0.98,7.63,-8.36,2.50,20.94,-0.49,-39.55,1
-0.06,0.12,0.99,3.48,-9.40,2.56,20.74,-0.09,-40.76,1
-0.07,0.12,0.98,0.73,-7.87,3.30,20.48,0.32,-40.54,1
-0.07,0.12,0.98,-4.09,-3.91,1.46,20.36,-0.63,-41.76,1
-0.06,0.14,0.99,-3.72,-0.06,-1.77,20.50,-1.31,-40.59,1
-0.07,0.14,0.98,-0.67,2.69,-2.44,21.36,-1.21,-41.27,1
-0.06,0.16,1.01,-17.64,10.44,-8.30,21.20,-1.57,-40.54,1
-0.04,0.17,0.94,-32.35,13.31,-7.51,21.72,-2.08,-41.94,1
-0.02,0.22,0.99,-33.26,25.39,-8.24,22.45,-3.09,-41.66,1
0.01,0.26,0.98,-34.67,15.87,-5.55,22.69,-4.60,-41.89,1
0.02,0.29,0.93,-28.20,25.33,-10.38,23.77,-5.09,-41.28,1
0.07,0.31,0.95,-17.09,33.02,-10.13,24.77,-5.92,-42.22,1
0.10,0.34,0.96,-4.27,18.25,-8.24,25.57,-6.29,-41.81,1
0.12,0.31,0.90,-1.28,16.17,-11.11,25.96,-6.77,-41.80,1
0.14,0.33,0.93,4.58,9.83,-6.16,26.10,-6.54,-41.67,1
0.15,0.34,0.91,-2.38,5.80,-3.66,26.59,-6.37,-41.27,1
0.16,0.34,0.90,3.97,4.70,-3.91,26.61,-6.64,-40.34,1
0.17,0.34,0.91,-11.23,2.69,-0.98,27.04,-6.79,-42.15,1
0.17,0.35,0.90,9.89,0.92,-1.16,27.03,-7.23,-41.08,1
0.18,0.34,0.92,22.89,-0.49,-4.94,27.15,-6.45,-41.82,1
0.16,0.32,0.93,78.67,-13.73,-6.16,27.50,-6.19,-40.97,1
0.16,0.24,0.96,50.05,-23.32,0.55,27.97,-4.80,-40.82,1
0.14,0.17,0.89,100.71,-39.43,2.50,27.08,-4.66,-41.16,1
0.11,0.17,1.04,43.03,-31.43,8.48,26.42,-3.04,-40.06,1
0.08,0.13,1.01,-26.49,-6.23,6.77,25.67,-2.17,-41.53,1
0.09,0.16,0.95,-10.13,-7.69,4.88,24.77,-2.65,-41.44,1
0.07,0.16,1.00,3.17,-11.11,6.65,24.50,-2.50,-40.60,1
0.05,0.14,0.97,42.54,-18.37,4.46,23.83,-1.93,-40.21,1
0.04,0.15,1.02,-7.69,-10.38,1.89,23.23,-1.23,-40.89,1
0.03,0.11,0.99,6.84,-10.56,4.15,22.81,-0.26,-40.11,1
0.01,0.13,0.98,-15.50,-15.99,12.02,22.28,-0.40,-39.90,1
0.02,0.15,0.99,-0.43,-4.46,2.50,21.96,-0.83,-39.86,1
0.01,0.16,0.99,5.80,-6.59,1.46,21.63,-0.09,-39.54,1
0.01,0.16,0.99,13.79,-6.77,-2.56,21.13,-0.46,-39.79,1
-0.00,0.07,0.99,35.52,-6.71,-8.54,21.51,0.87,-40.05,1
0.00,0.06,1.00,27.10,-6.71,-3.78,21.08,1.10,-39.55,1
-0.00,0.06,0.97,23.80,-7.51,1.89,21.39,1.55,-40.43,1
-0.00,0.06,0.99,7.57,-2.44,1.28,20.79,2.19,-39.72,1
-0.01,0.05,1.00,14.04,-6.84,1.40,20.97,2.03,-39.39,1
-0.01,0.03,0.98,10.31,-8.30,3.91,20.48,3.11,-39.05,1
-0.01,0.05,1.00,-2.14,-9.28,3.11,20.54,2.94,-39.04,1
-0.03,0.05,0.99,-1.46,-10.68,4.03,19.56,2.76,-40.00,1
-0.03,0.06,1.00,-6.53,-7.51,5.49,19.90,2.40,-39.69,1
-0.04,0.06,0.99,-0.12,-5.80,3.05,19.93,2.55,-41.09,1
-0.04,0.07,1.00,-2.08,-2.99,2.38,19.92,1.55,-40.09,1
-0.04,0.07,0.98,2.69,-4.52,1.53,19.68,2.28,-40.26,1
-0.04,0.07,0.98,-3.91,-2.56,1.04,19.41,2.33,-40.71,1
-0.03,0.06,1.00,1.95,-3.66,1.59,19.67,2.49,-39.73,1
-0.04,0.08,0.99,-5.62,-4.46,3.78,19.70,1.48,-40.54,1
-0.05,0.08,0.98,-0.85,-6.47,3.05,20.21,1.71,-40.94,1
-0.04,0.10,0.98,-5.98,-5.19,3.85,19.84,0.99,-40.21,1
-0.05,0.11,0.98,-1.89,-5.86,3.78,20.03,0.68,-40.72,1
-0.06,0.12,0.96,-16.05,-8.85,1.28,19.89,0.73,-40.19,1
-0.08,0.13,0.99,-8.73,-12.08,4.03,19.84,-0.23,-41.47,1
-0.08,0.14,0.99,5.74,-12.02,1.28,19.24,-0.37,-40.97,1
-0.08,0.13,0.97,10.86,-7.08,3.11,19.79,-0.02,-41.03,1
-0.09,0.11,1.00,27.89,-9.52,3.85,18.71,0.43,-41.31,1
-0.10,0.09,0.98,13.61,-8.12,1.53,19.08,0.98,-41.49,1
-0.10,0.07,0.97,11.96,-5.92,-1.89,18.84,1.40,-41.19,1
-0.10,0.08,0.99,7.32,-3.36,0.43,18.75,1.29,-41.37,1
-0.10,0.09,0.98,5.98,-3.72,0.92,18.64,1.33,-41.25,1
-0.10,0.09,0.99,2.69,-1.59,0.18,19.02,1.79,-41.15,1
-0.10,0.09,0.98,3.91,-3.48,1.77,18.49,1.51,-40.30,1
-0.10,0.09,0.99,3.23,-1.04,0.79,18.58,1.22,-40.89,1
-0.10,0.09,0.98,4.21,-2.99,1.40,18.63,1.46,-40.70,1
-0.09,0.08,0.99,4.27,-0.24,0.61,18.87,1.57,-40.88,1
-0.10,0.09,0.98,2.99,-0.85,-0.24,18.60,1.43,-39.98,1
-0.09,0.09,0.99,4.15,3.85,-0.06,19.19,1.16,-40.61,1
-0.09,0.08,0.99,4.46,-1.16,1.16,19.19,1.14,-40.65,1
-0.08,0.08,0.98,3.36,5.62,-1.77,19.30,1.26,-40.45,1
-0.07,0.09,0.99,3.05,6.77,-2.56,19.70,1.22,-41.38,1
-0.06,0.10,1.00,6.53,8.79,-2.08,20.10,1.20,-40.91,1
-0.05,0.09,0.99,4.39,-1.46,0.79,19.59,1.92,-40.26,1
-0.06,0.09,0.99,3.91,5.86,-0.73,19.74,0.74,-41.17,1
-0.04,0.09,0.99,4.03,1.16,0.24,20.35,1.43,-40.87,1
-0.04,0.10,1.00,3.36,3.05,1.89,20.89,0.31,-40.53,1
-0.03,0.09,0.98,4.03,-2.87,1.28,20.32,1.37,-40.32,1
-0.03,0.09,0.99,3.36,1.83,0.61,20.50,0.40,-40.49,1
-0.03,0.09,0.99,2.87,3.60,0.06,20.56,0.78,-40.78,1
-0.03,0.09,0.99,3.78,-2.75,1.71,21.02,0.62,-41.49,1
-0.02,0.09,0.99,5.68,2.75,1.04,20.78,1.11,-40.37,1
-0.01,0.09,1.00,4.15,-0.24,0.61,21.09,0.43,-40.84,1
-0.02,0.09,0.98,3.11,-0.73,1.28,21.63,1.03,-41.58,1
-0.01,0.10,1.00,3.05,5.25,0.73,21.03,0.77,-40.88,1
-0.00,0.09,0.99,3.97,0.37,0.67,20.79,1.50,-40.75,1
0.00,0.10,0.99,2.50,6.84,-0.06,21.78,0.98,-41.05,1
0.01,0.10,0.99,4.39,0.49,0.92,21.58,1.20,-40.17,1
0.01,0.10,0.99,5.07,1.77,0.00,21.56,1.03,-41.30,1
0.02,0.10,0.99,4.09,-1.16,0.49,21.84,1.44,-40.19,1
0.02,0.09,0.99,3.85,-2.01,1.53,21.70,0.60,-39.92,1
0.02,0.09,0.99,3.91,-2.50,0.49,22.17,0.96,-40.48,1
0.02,0.09,0.99,3.60,-2.56,1.34,21.62,1.05,-40.86,1
0.02,0.09,0.99,3.60,-2.69,0.79,21.80,0.94,-40.53,1
0.02,0.10,0.99,2.93,-2.38,0.55,21.72,0.77,-40.67,1
0.02,0.10,0.99,3.91,-2.87,1.46,21.70,0.23,-40.61,1
0.02,0.10,0.99,7.14,-1.53,0.24,22.03,1.01,-41.04,1
0.02,0.09,0.99,4.03,-1.65,2.08,22.13,1.60,-40.44,1
0.03,0.10,0.99,1.95,-2.20,2.50,22.49,0.78,-40.43,1
0.02,0.10,0.99,2.69,-2.56,1.77,22.28,0.85,-39.38,1
0.02,0.10,0.99,2.81,-2.56,2.26,22.46,0.17,-40.83,1
0.03,0.10,0.99,4.52,-2.14,2.01,22.03,0.98,-40.33,1
0.03,0.10,0.99,2.44,-3.05,2.93,22.29,0.99,-39.77,1
0.02,0.10,1.00,5.49,-4.70,4.82,22.55,0.65,-39.97,1
0.02,0.10,0.99,6.59,-3.85,1.22,22.31,0.09,-40.52,1
0.01,0.10,0.99,-7.02,-1.83,3.85,22.66,0.99,-39.11,1
0.03,0.10,1.04,-6.53,6.65,0.43,22.60,0.21,-40.21,1
0.03,0.13,0.92,-15.93,3.05,3.48,23.03,-0.79,-38.98,1
0.04,0.14,0.98,-1.71,-4.46,1.95,23.11,-0.67,-40.81,1
0.03,0.13,0.98,7.39,-2.56,2.08,22.91,-0.18,-40.71,1
0.04,0.13,0.99,9.34,-5.07,1.04,22.95,-0.92,-40.00,1
0.03,0.13,0.98,6.29,-2.87,2.01,22.42,-0.26,-40.41,1
0.03,0.12,0.99,6.59,-3.42,0.43,23.16,-0.59,-40.26,1
0.03,0.12,0.98,6.84,-2.50,0.98,23.03,-0.76,-40.63,1
0.03,0.12,0.99,4.21,-3.78,1.46,22.69,-0.88,-40.69,1
0.03,0.12,0.97,4.46,-3.23,1.10,22.60,-0.17,-39.76,1
0.03,0.12,0.99,4.09,-2.14,0.73,23.27,0.09,-40.69,1
0.03,0.12,0.99,4.64,-4.94,1.46,23.00,-0.28,-40.19,1
0.03,0.12,0.98,2.87,-2.20,1.40,22.39,-0.65,-39.50,1
0.03,0.12,0.98,5.00,-4.52,0.67,22.75,-0.56,-40.16,1
0.03,0.12,0.98,3.60,-3.05,1.46,22.61,-0.59,-40.01,1
0.03,0.12,0.99,2.81,-3.66,1.16,22.57,-0.01,-39.72,1
0.03,0.12,0.98,4.58,-2.99,0.43,22.63,-0.49,-40.42,1
0.03,0.12,0.99,3.54,-3.11,1.22,22.52,-0.52,-41.05,1
0.03,0.12,0.99,5.19,-4.70,0.79,22.73,-0.39,-40.70,1
0.03,0.12,0.98,4.09,-2.87,0.55,22.40,-0.40,-40.05,1
0.02,0.12,1.00,4.82,-4.33,0.92,22.42,-0.34,-40.88,1
0.03,0.12,0.98,3.17,-2.99,1.04,22.18,-0.82,-40.70,1
0.03,0.12,0.99,3.17,-3.48,1.34,22.33,-0.32,-40.04,1
0.02,0.12,0.99,3.17,-3.11,1.34,22.67,-0.60,-40.81,1
0.02,0.12,0.98,3.91,-3.42,0.85,22.09,-0.37,-40.10,1
0.02,0.12,0.99,3.66,-3.91,1.83,22.58,-0.50,-40.17,1
0.02,0.12,0.98,3.17,-2.50,1.34,22.34,0.13,-39.66,1
0.02,0.12,0.98,5.68,-3.72,0.98,22.77,-0.73,-39.89,1
0.02,0.12,0.99,2.56,-2.32,1.59,22.25,-0.84,-39.67,1
0.02,0.12,0.98,3.54,-3.30,0.61,22.91,-0.54,-40.22,1
0.02,0.12,0.98,4.33,-2.81,0.61,22.83,0.05,-40.04,1
0.02,0.12,0.99,4.52,-3.42,1.40,22.64,-0.50,-40.58,1
0.02,0.12,0.98,3.91,-2.87,0.85,22.57,-0.65,-40.72,1
0.02,0.12,0.99,3.05,-2.93,0.98,22.61,-0.83,-40.99,1
0.02,0.12,0.98,3.23,-3.30,1.04,22.81,-0.49,-40.70,1
0.02,0.12,0.98,4.39,-2.62,1.28,22.49,-1.05,-39.59,1
0.02,0.12,0.98,4.21,-4.33,1.22,22.52,-0.73,-39.86,1
0.02,0.12,0.99,4.15,-1.89,0.73,22.99,-0.34,-41.49,1
0.02,0.12,0.98,1.89,-3.42,0.92,22.77,-0.35,-40.44,1
0.02,0.12,0.98,5.00,-2.56,1.95,22.94,-0.57,-40.22,1
0.02,0.12,0.98,2.93,-3.17,1.28,22.35,-0.59,-40.94,1
0.02,0.12,0.98,3.42,-2.14,1.40,22.81,-0.28,-40.16,1
0.02,0.12,1.00,3.60,-2.99,0.85,22.84,-0.60,-40.76,1
0.02,0.12,0.98,2.69,-2.69,0.85,22.57,-0.83,-41.15,1
0.02,0.12,1.00,4.46,-2.69,1.16,22.49,-1.09,-41.14,1
0.02,0.12,0.98,4.33,-3.48,1.16,22.62,-0.65,-39.97,1
0.02,0.13,0.99,4.70,-2.08,0.98,22.25,-0.57,-40.01,1
0.02,0.12,0.98,3.91,-2.87,1.16,22.33,-0.31,-40.49,1
0.03,0.12,0.98,3.05,-2.32,1.46,22.72,-0.06,-40.70,1
0.02,0.12,0.99,2.75,-3.05,1.40,22.63,0.04,-40.16,1
0.03,0.12,0.98,3.85,-2.93,1.22,22.88,-0.35,-40.84,1
0.02,0.12,0.99,4.46,-2.93,1.28,22.47,-0.68,-40.58,1
0.02,0.12,0.98,3.42,-3.54,1.59,22.60,0.32,-40.78,1
0.02,0.13,0.99,4.39,-2.81,1.46,22.88,-0.43,-40.69,1
0.03,0.12,0.98,2.99,-2.87,1.28,22.22,-0.44,-40.83,1
0.02,0.13,0.98,4.09,-2.38,1.71,22.79,-0.92,-40.39,1
0.02,0.13,0.99,3.17,-2.75,1.10,22.66,-0.38,-40.43,1
0.02,0.13,0.98,3.36,-2.87,1.46,22.47,-0.39,-41.66,1
0.03,0.13,0.99,4.46,-2.99,1.28,22.60,-0.66,-40.08,1
0.02,0.13,0.98,4.39,-3.66,1.16,22.57,-0.35,-41.08,1
0.02,0.13,0.98,4.82,-2.75,0.79,22.49,-0.40,-40.64,1
0.03,0.13,0.98,2.62,-3.17,1.28,22.40,-0.70,-40.22,1
0.02,0.13,0.98,4.15,-2.56,1.83,23.12,-0.23,-40.22,1
0.03,0.13,0.99,3.60,-3.23,1.10,23.03,-0.45,-40.77,1
0.03,0.13,0.98,3.48,-3.11,1.34,23.27,-1.04,-40.28,1
0.02,0.13,0.98,3.48,-3.05,1.16,22.94,-0.83,-39.97,1
0.03,0.13,0.99,4.70,-3.23,1.53,23.29,-0.22,-40.36,1
0.02,0.13,0.98,4.09,-2.93,0.79,22.60,0.01,-40.44,1
0.02,0.13,0.99,4.58,-2.81,1.22,22.84,-0.55,-41.35,1
0.02,0.13,0.98,4.70,-3.36,1.28,23.08,-0.39,-40.99,1
0.02,0.13,0.99,2.62,-2.62,0.31,22.60,0.07,-40.25,1
0.02,0.13,0.99,4.21,-3.11,1.53,23.18,-0.42,-40.50,1
0.03,0.12,0.98,5.80,-3.30,1.16,23.00,-0.88,-40.89,1
0.02,0.13,0.98,4.58,-2.69,1.34,22.94,0.15,-41.19,1
0.02,0.12,0.98,5.25,-2.20,0.98,22.49,0.01,-39.84,1
0.02,0.12,1.00,3.97,-3.42,1.71,22.79,-0.11,-39.70,1
0.02,0.12,0.97,3.72,-3.23,1.65,22.72,-0.43,-40.17,1
0.02,0.12,0.99,5.19,-2.56,1.65,22.55,0.32,-40.60,1
0.02,0.12,0.98,6.23,-3.54,1.46,22.58,0.21,-40.05,1
0.03,0.12,0.99,6.90,-0.92,0.98,22.81,-0.62,-40.23,1
0.02,0.12,0.98,4.88,-3.23,1.65,22.20,-0.55,-40.67,1
0.02,0.11,0.98,5.07,-2.01,1.28,23.14,0.48,-40.08,1
0.02,0.11,0.99,5.13,-2.62,1.59,23.01,-0.10,-40.36,1
0.03,0.11,0.98,3.54,-2.44,1.10,22.90,-0.15,-41.36,1
0.03,0.11,0.98,4.39,-2.08,-0.18,22.79,-0.07,-41.53,1
0.02,0.12,0.98,6.10,-1.40,1.34,23.00,-0.21,-41.26,1
0.03,0.10,0.99,11.84,-3.91,2.20,22.41,0.45,-40.60,1
0.03,0.11,0.97,8.12,-4.46,2.38,22.72,1.14,-39.95,1
0.03,0.09,1.00,11.72,-2.75,2.62,22.83,1.51,-39.89,1
0.02,0.09,0.99,7.57,-5.31,2.08,22.91,0.82,-41.14,1
0.02,0.08,0.99,5.55,-3.11,3.48,22.80,0.88,-40.26,1
0.02,0.09,0.99,0.85,-0.79,0.18,22.60,0.82,-40.45,1
0.02,0.09,0.99,1.16,-2.99,-0.31,22.24,1.12,-40.42,1
0.02,0.10,0.99,8.48,-3.05,0.79,22.02,0.99,-39.93,1
0.03,0.09,0.99,4.82,-4.09,2.20,21.84,0.92,-40.16,1
0.03,0.09,0.99,10.07,-1.71,0.49,21.86,1.76,-40.15,1
0.02,0.09,0.99,2.87,-2.14,1.71,21.96,2.09,-39.78,1
0.03,0.09,0.99,3.85,-1.95,1.95,22.27,1.83,-40.00,1
0.03,0.10,0.98,1.16,-2.20,1.59,22.07,1.39,-39.90,1
0.03,0.11,0.99,-1.04,-0.67,1.22,22.01,1.14,-40.20,1
0.03,0.10,0.98,2.01,-2.93,1.10,21.97,1.11,-40.76,1
0.01,0.07,0.98,-0.67,-3.97,1.83,22.31,1.14,-39.66,1
0.03,0.11,0.99,6.29,-3.66,1.89,22.11,0.93,-40.95,1
0.03,0.10,0.99,6.47,-3.23,0.92,22.62,0.93,-40.31,1
0.03,0.10,0.99,6.84,-3.48,1.22,22.41,1.34,-40.28,1
0.03,0.10,0.99,5.49,-2.75,0.98,22.24,0.84,-40.22,1
0.03,0.10,0.99,6.10,-2.99,1.34,22.19,1.56,-39.25,1
0.03,0.10,0.99,4.94,-3.05,2.26,21.97,1.01,-40.78,1
0.03,0.10,0.99,4.52,-3.23,1.46,21.95,2.09,-39.48,1
0.03,0.09,0.99,3.85,-2.99,1.77,22.12,1.20,-41.15,1
0.03,0.10,0.99,3.72,-3.11,0.98,22.00,1.45,-39.40,1
0.03,0.10,0.99,5.37,-3.66,1.34,22.29,1.01,-40.04,1
0.03,0.09,0.99,4.46,-3.05,0.98,22.18,2.10,-40.11,1
0.03,0.10,0.99,4.33,-3.23,1.34,22.28,1.12,-40.58,1
0.03,0.09,0.99,5.55,-2.87,1.59,22.02,1.10,-40.81,1
0.03,0.09,0.99,6.35,-3.48,0.92,22.09,1.34,-40.26,1
0.03,0.09,0.98,3.85,-3.30,0.73,21.84,1.77,-40.87,1
0.02,0.09,0.99,4.82,-2.50,2.01,21.94,1.60,-40.26,1
0.03,0.09,0.99,4.58,-3.17,1.34,22.03,1.51,-39.92,1
0.03,0.09,0.99,4.64,-3.30,0.92,21.98,1.89,-40.63,1
0.03,0.09,0.99,5.07,-3.23,0.61,22.61,0.92,-41.14,1
0.03,0.09,0.99,3.54,-2.75,1.22,22.56,1.48,-40.61,1
0.03,0.09,0.99,4.58,-3.11,1.28,22.11,1.38,-39.87,1
0.03,0.09,0.99,5.37,-3.17,1.16,22.20,2.08,-40.75,1
0.03,0.09,0.99,3.78,-2.93,0.85,22.00,1.42,-39.95,1
0.03,0.09,0.99,4.64,-3.30,1.53,21.90,1.81,-40.49,1
0.03,0.09,0.99,3.66,-2.75,0.79,21.85,1.75,-40.33,1
0.03,0.09,0.99,4.58,-3.30,1.22,22.09,2.04,-39.43,1
0.03,0.08,0.99,7.08,-2.87,1.46,21.94,2.08,-40.53,1
0.03,0.08,0.99,6.41,-3.23,0.55,21.87,1.95,-40.17,1
0.02,0.08,0.99,5.00,-3.36,1.34,22.31,2.58,-40.17,1
0.02,0.08,0.99,7.08,-3.48,1.04,22.31,1.59,-40.19,1
0.02,0.07,0.99,9.09,-4.21,1.10,22.25,1.57,-39.92,1
0.03,0.07,0.99,7.08,-3.30,1.04,21.96,1.68,-38.95,1
0.03,0.07,0.99,7.75,-2.99,0.24,21.90,2.06,-40.00,1
0.02,0.07,0.99,7.02,-2.69,0.73,22.38,2.08,-40.53,1
0.03,0.06,0.99,11.47,-3.60,0.67,22.14,2.34,-40.71,1
0.03,0.06,1.00,8.18,-2.93,0.79,22.23,2.40,-40.12,1
0.03,0.05,0.99,10.68,-3.11,0.06,22.29,2.39,-39.84,1
0.02,0.04,0.99,7.02,-4.58,-0.12,22.50,2.92,-40.64,1
0.02,0.04,1.00,8.24,-4.82,0.18,21.84,2.84,-39.84,1
0.02,0.04,1.00,1.40,-4.58,0.06,22.22,2.32,-39.73,1
0.02,0.04,0.99,2.01,-2.62,1.71,21.75,1.90,-39.66,1
0.02,0.04,0.98,5.86,-3.60,1.89,22.18,2.37,-39.16,1
0.02,0.04,1.00,0.67,-1.34,1.28,22.63,2.10,-39.34,1
0.02,0.04,1.00,2.20,-2.56,1.83,22.57,2.17,-39.34,1
0.02,0.04,0.99,5.31,-0.92,1.10,22.52,2.72,-39.97,1
0.02,0.05,0.99,2.99,-1.95,2.56,22.24,2.47,-38.90,1
0.03,0.05,1.00,4.82,-0.79,1.34,22.84,1.71,-40.00,1
0.02,0.04,0.98,4.27,0.37,2.87,22.53,1.88,-39.67,1
0.03,0.05,1.00,1.77,-2.99,4.33,22.83,2.36,-40.28,1
0.03,0.05,0.99,6.23,-2.50,3.85,23.01,2.26,-38.24,1
0.03,0.04,1.00,0.24,-1.89,1.71,23.08,2.12,-39.39,1
0.03,0.06,0.99,-1.53,0.12,2.99,22.97,1.61,-39.82,1
0.04,0.07,0.99,3.11,0.31,1.89,23.19,1.84,-39.67,1
0.04,0.05,0.98,4.88,-0.31,3.30,22.80,2.54,-39.43,1
0.03,0.06,0.99,7.75,-3.66,2.75,23.33,1.83,-39.76,1
0.03,0.05,0.99,6.77,-3.91,1.22,23.28,1.75,-40.10,1
0.04,0.05,1.01,6.77,-3.48,0.43,23.33,1.78,-39.84,1
0.04,0.06,0.98,13.24,-3.72,1.83,23.10,2.36,-40.31,1
0.03,0.04,0.99,-9.70,-5.43,3.42,23.22,2.10,-40.39,1
0.02,0.05,1.00,3.11,-10.13,2.75,23.28,1.98,-40.12,1
0.02,0.06,0.98,-2.01,-1.95,1.53,23.33,1.42,-41.06,1
0.02,0.07,1.00,5.62,-5.55,1.10,23.23,1.65,-39.73,1
0.02,0.07,0.98,1.10,-4.33,1.34,22.85,1.01,-40.17,1
0.01,0.07,1.00,3.11,-2.01,0.12,23.10,1.88,-40.21,1
0.02,0.07,0.97,1.71,-1.28,2.01,22.67,1.68,-40.50,1
0.02,0.08,1.00,2.26,-1.77,0.24,22.69,1.45,-40.03,1
0.02,0.08,0.99,2.32,-3.91,0.73,22.97,1.31,-39.54,1
0.02,0.08,1.00,1.83,-2.50,1.22,23.07,1.15,-40.70,1
0.02,0.08,0.98,2.93,-3.54,0.49,22.73,1.38,-40.03,1
0.01,0.08,0.99,4.70,-2.38,1.16,22.56,1.64,-40.49,1
0.02,0.08,0.99,3.97,-3.78,0.31,23.05,1.05,-39.34,1
0.02,0.08,1.00,3.17,-2.50,1.71,22.96,0.77,-39.54,1
0.02,0.08,0.99,7.14,-5.31,0.24,22.66,1.10,-40.14,1
0.02,0.08,0.98,5.43,-2.69,0.92,23.13,1.61,-39.97,1
0.02,0.07,1.00,8.97,-3.91,-0.49,22.22,0.99,-40.95,1
0.02,0.07,0.99,8.30,-4.09,0.73,22.57,1.84,-40.81,1
0.01,0.07,0.99,5.19,-2.75,0.67,22.61,1.40,-39.49,1
0.02,0.07,1.00,3.30,-2.56,1.89,22.51,1.42,-39.82,1
0.01,0.07,0.99,3.78,-2.62,0.92,22.91,1.70,-40.08,1
0.02,0.07,0.98,4.52,-1.22,0.55,22.46,1.48,-40.09,1
0.02,0.07,1.00,3.60,-2.08,1.65,22.64,1.75,-40.78,1
0.02,0.07,0.99,6.04,-2.08,0.73,23.34,1.55,-40.08,1
0.02,0.07,0.99,3.97,-1.16,0.85,22.77,1.66,-40.66,1
0.02,0.07,0.99,4.09,-2.44,0.85,23.10,1.62,-40.95,1
0.02,0.07,0.97,6.04,0.12,1.40,23.17,1.25,-40.20,1
0.02,0.07,0.99,3.05,0.24,2.81,23.10,1.17,-39.89,1
0.03,0.07,0.99,5.62,-4.46,3.36,23.16,1.65,-39.38,1
0.02,0.07,0.98,3.85,-0.79,1.04,22.86,1.22,-40.32,1
0.03,0.06,1.01,4.70,-3.11,3.66,23.06,1.03,-39.59,1
0.03,0.06,0.97,6.71,-3.97,2.93,23.32,1.72,-40.15,1
0.03,0.07,0.99,2.44,1.40,1.22,23.06,1.89,-40.45,1
0.04,0.07,1.01,6.59,3.05,1.10,23.16,1.25,-40.08,1
0.03,0.07,0.97,6.16,-5.31,2.26,23.34,1.37,-39.97,1
0.04,0.06,0.98,12.88,-4.15,0.24,23.08,1.37,-40.08,1
0.03,0.06,1.01,14.40,-6.23,0.12,23.22,2.16,-39.58,1
0.03,0.05,0.96,12.63,-8.30,4.64,23.24,1.67,-38.17,1
0.02,0.05,1.00,4.03,-3.97,4.76,23.36,1.43,-39.55,1
0.01,0.04,0.99,-4.52,-17.82,8.85,23.14,1.46,-39.31,1
0.01,0.07,1.00,-21.00,5.07,3.91,23.06,0.73,-39.90,1
0.03,0.10,1.00,1.89,20.87,-1.34,24.15,0.34,-39.50,1
0.03,0.10,0.99,13.12,2.81,2.81,23.78,1.14,-39.97,1
0.06,0.05,0.99,5.98,0.61,3.72,23.96,1.10,-40.17,1
0.03,0.08,0.98,3.60,1.22,6.77,24.21,0.89,-39.45,1
0.03,0.10,0.99,3.36,2.38,3.78,24.35,1.40,-40.11,1
0.07,0.06,0.99,10.01,0.18,1.22,23.89,1.33,-39.77,1
0.05,0.07,0.98,17.33,-0.12,-0.92,23.82,1.79,-40.23,1
0.06,0.05,0.99,13.67,-1.22,3.85,23.95,2.43,-39.07,1
0.06,0.05,0.99,17.88,-3.48,2.75,23.83,2.45,-39.17,1
0.06,0.01,0.91,106.51,-20.26,-8.97,24.06,2.73,-38.70,1
0.05,-0.01,1.00,4.15,-5.31,-0.61,23.95,2.80,-38.71,1
0.05,-0.02,0.99,4.58,-5.68,1.59,24.08,3.28,-38.26,1
0.04,-0.02,1.00,3.30,-4.21,1.10,23.95,3.49,-39.15,1
0.05,-0.02,1.00,3.17,-3.23,0.06,24.37,3.45,-38.84,1
0.04,-0.01,0.99,4.03,-1.95,1.34,23.52,2.54,-38.98,1
0.05,-0.01,0.99,11.90,0.79,9.77,24.23,3.54,-39.51,1
0.04,-0.02,0.99,4.15,-4.82,5.43,24.19,2.98,-38.37,1
0.04,-0.03,0.98,-1.40,-7.14,2.93,23.71,2.94,-39.54,1
0.04,-0.01,1.01,2.93,-14.16,10.86,24.12,3.48,-39.43,1
0.03,0.00,1.02,7.20,-5.92,13.24,23.75,3.63,-38.77,1
0.05,0.00,1.05,5.62,-1.53,13.49,24.18,3.12,-40.21,1
0.09,-0.01,1.00,6.16,-1.16,8.30,24.01,3.14,-38.85,1
0.03,0.00,0.99,4.52,-0.12,2.75,24.28,2.67,-38.57,1
0.02,-0.01,1.00,4.27,-5.13,2.93,24.23,3.21,-40.28,1
0.02,-0.01,0.99,4.15,-2.26,1.40,24.48,2.83,-40.27,1
0.02,-0.02,0.99,4.33,-2.62,1.34,24.39,3.05,-39.61,1
0.03,0.00,1.00,3.85,-2.69,2.87,24.08,3.00,-38.28,1
0.02,-0.02,0.99,4.15,-3.85,0.55,24.48,3.05,-39.07,1
0.05,0.01,0.95,-0.85,-10.99,-50.05,24.23,3.83,-40.09,1
-0.01,-0.02,1.00,4.03,-13.73,-28.56,23.54,3.48,-39.45,1
-0.01,0.01,0.99,4.70,-5.49,-3.78,23.88,3.86,-39.50,1
0.03,-0.07,0.95,2.01,-26.67,-42.91,21.98,4.04,-38.99,1
-0.01,-0.02,0.99,4.21,-3.05,-0.18,21.52,4.32,-39.78,1
-0.02,-0.01,1.00,4.39,-2.75,0.79,21.41,4.60,-39.86,1
-0.02,-0.01,0.99,4.03,-2.81,4.21,21.42,4.19,-39.62,1
-0.00,-0.00,0.99,4.39,-2.38,4.39,21.89,3.91,-38.65,1
-0.01,-0.00,1.00,4.27,-2.99,0.79,22.19,3.87,-39.36,1
-0.01,-0.01,0.99,4.82,-3.54,0.98,22.13,3.16,-40.06,1
-0.01,-0.01,1.00,4.76,-3.17,0.79,22.71,3.50,-39.86,1
-0.02,-0.03,0.99,9.89,-5.25,-2.08,22.74,2.93,-39.51,1
-0.02,-0.02,0.99,4.52,-2.99,0.73,22.50,3.44,-39.78,1
-0.01,0.01,1.00,4.03,-3.17,-0.55,22.46,3.47,-39.15,1
-0.02,-0.02,1.00,4.27,-3.42,-20.39,22.27,3.61,-39.39,1
-0.00,-0.01,0.99,3.36,-3.05,-21.00,21.39,3.44,-39.58,1
-0.01,-0.03,0.99,4.09,-3.54,-26.61,21.39,3.53,-38.77,1
-0.01,-0.01,0.99,4.52,-3.05,-9.58,21.42,3.96,-39.61,1
-0.01,-0.02,1.00,2.99,-2.50,-2.56,20.69,3.56,-39.83,1
-0.03,-0.02,0.99,6.47,-4.03,-8.67,21.22,2.75,-39.77,1
-0.02,-0.02,0.99,2.56,-1.89,-2.08,21.12,3.12,-39.97,1
-0.02,-0.02,0.99,1.95,0.24,2.38,20.68,3.67,-40.30,1
-0.01,-0.02,1.00,4.09,-0.18,6.16,21.17,3.87,-39.87,1
-0.01,-0.00,0.99,4.21,-5.62,2.01,21.09,3.36,-39.90,1
-0.01,-0.02,1.00,4.15,-6.29,-1.40,20.89,3.97,-38.89,1
-0.02,-0.02,1.00,4.33,-2.93,8.61,20.61,3.82,-39.29,1
-0.01,-0.01,1.00,4.09,-2.99,4.64,20.95,3.53,-39.93,1
-0.02,-0.02,1.00,5.00,-2.56,10.62,20.67,3.43,-39.86,1
-0.01,-0.01,1.00,4.03,-2.99,5.74,20.81,4.14,-38.84,1
-0.01,-0.01,1.00,4.09,-2.75,3.23,21.03,3.17,-39.04,1
-0.01,-0.01,0.99,3.72,-3.36,2.20,20.68,4.00,-38.96,1
-0.01,-0.01,0.99,4.03,-2.81,2.14,21.42,3.54,-39.04,1
-0.01,-0.01,0.99,3.91,-3.11,1.65,20.98,3.94,-39.28,1
-0.01,-0.01,0.99,4.27,-2.87,2.01,20.90,3.87,-38.43,1
-0.01,-0.01,0.99,3.91,-2.93,1.22,21.12,3.74,-39.94,1
-0.01,-0.01,0.99,3.97,-2.93,1.40,20.67,4.31,-40.04,1
-0.01,-0.01,0.99,4.09,-2.93,1.65,20.30,3.39,-39.50,1
-0.01,-0.01,1.00,4.03,-2.93,2.81,20.50,3.50,-39.75,1
-0.02,-0.01,1.00,3.91,-2.62,1.65,20.95,3.78,-39.42,1
-0.02,-0.01,1.00,3.97,-2.56,2.87,20.46,4.04,-38.99,1
-0.01,-0.01,0.99,4.03,-2.81,1.46,21.02,3.47,-39.14,1
-0.01,-0.01,0.99,4.21,-2.93,1.40,20.91,3.33,-39.34,1
-0.01,-0.01,0.99,4.15,-2.44,3.48,21.61,4.41,-39.23,1
-0.02,-0.01,0.99,4.39,-2.14,4.03,21.03,2.98,-39.69,1
-0.02,-0.01,1.00,4.39,-2.50,5.13,21.30,3.09,-39.43,1
-0.01,-0.02,0.99,4.52,-1.59,4.33,20.97,3.09,-40.03,1
-0.01,-0.02,0.99,3.91,-1.71,4.70,20.98,3.38,-39.54,1
-0.01,-0.01,1.00,4.09,-2.14,2.62,21.45,2.83,-38.72,1
-0.01,-0.01,0.99,3.91,-2.26,2.38,20.90,3.26,-39.50,1
-0.01,-0.01,1.00,4.21,-3.30,1.95,21.13,3.48,-39.66,1
-0.01,-0.01,1.00,4.21,-2.44,2.50,21.14,3.63,-40.14,1
-0.01,-0.01,1.00,4.03,-2.87,2.20,21.55,3.63,-40.42,1
-0.01,-0.01,1.00,4.15,-2.81,2.01,21.59,3.04,-39.47,1
-0.00,-0.01,0.99,4.15,-2.93,1.77,21.04,3.10,-39.20,1
-0.01,-0.01,0.99,4.09,-2.32,1.22,20.76,3.47,-39.65,1
-0.00,-0.01,0.99,4.03,-2.93,1.34,21.22,3.91,-39.47,1
-0.00,-0.01,0.99,4.15,-2.69,1.28,21.04,3.69,-40.20,1
-0.00,-0.01,0.99,4.27,-3.11,1.16,21.00,4.14,-39.81,1
-0.01,-0.01,0.99,4.09,-3.17,1.22,21.25,3.71,-39.94,1
-0.00,-0.01,0.99,4.15,-2.69,1.53,21.13,3.59,-38.89,1
-0.00,-0.01,1.00,4.33,-2.93,1.40,21.25,3.94,-39.55,1
-0.00,-0.01,1.00,4.33,-2.99,1.46,21.44,3.60,-39.50,1
-0.01,-0.01,0.99,4.03,-3.05,1.34,21.02,3.97,-40.49,1
-0.00,-0.01,1.00,4.27,-2.99,1.53,21.12,3.64,-39.81,1
-0.00,-0.01,1.00,4.27,-2.93,1.83,21.28,3.59,-39.86,1
-0.00,-0.01,0.99,4.03,-3.23,1.77,21.31,3.52,-40.05,1
-0.01,-0.01,0.99,4.33,-3.48,3.97,20.96,3.37,-40.38,1
0.02,-0.00,1.00,2.87,-3.54,10.19,20.95,3.63,-39.15,1
0.02,-0.07,1.00,4.46,-3.60,14.16,21.14,3.60,-39.92,1
-0.01,-0.02,0.99,4.03,-3.36,2.38,21.47,3.76,-40.16,1
-0.01,-0.01,1.00,3.91,-3.97,0.92,21.58,3.70,-39.70,1
-0.01,-0.01,0.99,3.91,-4.03,1.04,21.34,4.35,-40.05,1
-0.01,-0.02,1.00,4.03,-3.66,1.28,21.31,3.88,-40.49,1
-0.01,-0.01,1.00,4.09,-3.05,1.71,22.07,3.82,-40.94,1
-0.01,-0.01,1.00,3.85,-3.36,1.04,21.33,3.39,-39.67,1
-0.01,-0.01,1.00,4.27,-2.99,1.10,21.25,4.50,-40.36,1
-0.01,-0.01,1.00,3.91,-2.93,1.53,21.30,3.91,-40.82,1
-0.01,-0.01,1.00,4.09,-2.81,1.40,20.90,4.08,-40.41,1
-0.01,-0.01,1.00,4.09,-3.05,1.28,21.13,3.81,-39.71,1
-0.01,-0.01,0.99,4.03,-2.87,1.34,21.04,4.58,-39.39,1
-0.01,-0.01,1.00,4.15,-2.93,1.22,21.24,4.27,-39.78,1
-0.01,-0.01,0.99,4.15,-2.87,1.28,21.17,3.71,-40.75,1
-0.01,-0.01,0.99,4.27,-2.87,1.53,21.31,4.53,-40.16,1
-0.01,-0.01,0.99,4.27,-3.05,1.34,20.92,3.77,-39.42,1
-0.01,-0.01,1.00,4.09,-2.99,1.16,20.86,4.14,-39.40,1
-0.01,-0.01,0.99,4.03,-3.11,1.22,20.86,3.54,-39.49,1
-0.01,-0.01,0.99,3.85,-3.11,1.46,21.09,4.13,-39.21,1
-0.01,-0.01,0.99,4.03,-3.11,1.40,21.03,4.19,-40.12,1
-0.01,-0.01,1.00,4.21,-3.23,1.40,21.03,3.59,-38.92,1
-0.01,-0.01,1.00,4.27,-2.93,1.46,21.26,3.25,-38.96,1
-0.01,-0.01,0.99,4.27,-2.93,1.53,20.81,4.63,-38.68,1
-0.01,-0.01,1.00,4.39,-3.05,1.40,20.81,3.83,-39.67,1
-0.01,-0.01,0.99,4.21,-2.87,1.22,21.30,3.93,-39.98,1
-0.01,-0.01,0.99,4.03,-3.11,1.22,21.22,3.80,-39.65,1
-0.01,-0.01,1.00,4.21,-2.81,1.46,20.96,4.15,-39.90,1
-0.01,-0.01,1.00,3.97,-2.93,1.40,20.87,3.54,-39.50,1
-0.01,-0.01,1.00,4.09,-2.87,1.10,21.04,3.72,-40.12,1
-0.01,-0.01,0.99,4.15,-2.99,1.40,20.79,4.41,-39.86,1
-0.01,-0.01,1.00,4.21,-3.05,1.10,20.59,3.77,-39.64,1
-0.01,-0.01,1.00,4.46,-3.42,-0.18,20.85,3.72,-38.59,1
-0.01,-0.01,1.00,4.52,-2.87,0.49,21.50,3.54,-40.38,1
-0.01,-0.01,1.00,4.21,-2.99,1.40,21.35,3.64,-39.39,1
-0.01,-0.01,0.99,4.21,-2.75,1.40,21.35,3.97,-39.66,1
-0.02,0.00,1.00,4.27,-2.44,1.34,21.55,3.82,-39.16,1
-0.01,-0.02,0.99,4.03,-2.87,4.15,21.41,4.05,-38.83,1
-0.01,-0.01,1.00,7.45,-3.66,-1.65,21.28,3.97,-39.43,1
-0.02,-0.01,1.00,4.27,-3.36,-1.95,20.91,4.02,-40.19,1
-0.00,-0.02,0.99,5.55,-3.78,-3.85,21.26,3.85,-39.93,1
-0.02,-0.00,1.00,1.53,-1.95,-4.03,21.11,3.47,-38.89,1
-0.01,-0.01,0.99,4.09,-2.93,1.16,20.89,3.66,-39.60,1
-0.01,-0.01,0.99,4.15,-2.81,1.46,21.29,3.43,-39.51,1
-0.01,-0.01,1.00,4.15,-2.99,0.98,21.42,4.25,-38.98,1
-0.01,-0.01,1.00,4.27,-3.05,0.73,21.52,3.66,-39.75,1
-0.01,-0.01,1.00,4.27,-3.17,1.22,21.62,3.53,-38.83,1
-0.02,-0.01,0.99,4.21,-3.11,1.10,20.97,3.87,-38.81,1
-0.01,-0.01,1.00,4.33,-2.87,1.71,21.59,3.85,-38.87,1
-0.02,-0.01,1.00,4.33,-2.50,1.53,21.11,4.04,-38.55,1
-0.01,-0.01,1.00,3.85,-2.62,-0.43,21.40,3.63,-40.12,1
-0.01,-0.01,0.99,4.21,-2.20,1.34,21.36,3.86,-40.10,1
-0.01,-0.01,1.00,4.33,-2.56,1.65,21.59,3.44,-38.26,1
-0.01,-0.01,1.00,4.27,-2.69,1.89,22.08,3.49,-39.04,1
-0.01,-0.02,1.00,4.27,-2.56,0.98,21.78,3.31,-39.54,1
-0.01,-0.01,1.00,4.21,-2.56,1.22,21.37,3.77,-39.79,1
-0.01,-0.01,1.00,4.21,-2.81,2.38,21.74,3.23,-39.37,1
-0.01,-0.01,1.00,7.02,-3.11,1.10,21.42,3.88,-39.34,1
-0.01,-0.01,0.99,2.99,-2.50,1.34,21.37,4.04,-39.43,1
-0.01,-0.01,1.00,3.85,-2.62,3.30,21.72,4.24,-39.66,1
-0.01,-0.01,1.00,3.11,-2.75,1.22,22.13,3.52,-39.69,1
-0.01,0.00,1.00,3.78,-1.53,1.95,21.52,3.36,-39.99,1
-0.00,-0.02,0.99,9.28,-0.18,1.83,21.64,3.25,-38.85,1
-0.00,-0.02,1.00,-9.46,-4.21,-0.61,21.64,2.95,-38.33,1
-0.00,-0.00,1.03,4.82,6.53,-3.42,22.66,2.20,-38.35,1
0.00,-0.00,0.94,18.19,-6.53,0.18,21.91,2.81,-38.99,1
0.00,-0.01,1.00,-3.97,-7.51,1.16,22.17,3.63,-39.06,1
-0.01,-0.00,0.98,-2.93,-6.04,-1.28,21.95,2.33,-39.49,1
-0.00,0.01,0.99,-3.97,-4.21,3.23,21.83,2.87,-38.87,1
-0.01,0.01,1.00,2.81,-3.78,0.18,21.98,2.67,-38.95,1
-0.01,0.01,0.99,3.97,-3.30,1.65,21.79,2.86,-39.44,1
-0.01,0.01,0.99,8.97,-3.17,2.20,21.73,3.09,-39.65,1
-0.01,0.01,0.99,3.60,-2.38,1.28,21.53,2.47,-40.08,1
-0.02,0.01,1.01,5.37,-3.30,0.98,21.31,2.70,-39.04,1
-0.01,0.01,0.99,2.93,-3.60,-0.31,21.64,2.78,-40.23,1
-0.01,0.01,1.00,2.50,-2.93,1.10,21.33,2.59,-40.26,1
-0.01,0.01,1.00,6.23,-3.17,1.46,21.79,3.09,-38.64,1
-0.01,0.00,0.99,5.68,-2.38,1.28,21.19,3.03,-39.29,1
-0.01,0.00,0.99,2.93,-2.44,1.10,21.56,3.31,-39.60,1
-0.01,0.01,1.00,1.16,-2.20,1.59,21.75,3.10,-39.17,1
-0.02,0.01,1.00,4.70,-0.49,3.23,21.91,3.31,-39.73,1
-0.01,0.01,0.99,2.08,-0.49,0.31,21.87,3.39,-39.29,1
-0.01,0.02,1.01,4.27,-0.67,1.53,21.40,2.82,-39.40,1
-0.01,0.00,0.99,6.96,-2.08,0.79,21.69,2.75,-39.51,1
-0.01,0.01,1.00,5.49,-2.99,0.73,22.03,3.34,-39.55,1
-0.01,0.01,0.99,1.46,-3.11,1.34,21.91,2.53,-39.78,1
-0.01,0.01,1.00,1.10,-1.83,-2.99,21.95,2.53,-40.22,1
-0.02,0.01,0.99,3.17,-4.15,-0.92,21.87,3.14,-39.43,1
-0.01,0.02,1.00,-3.54,-3.54,-0.85,21.72,2.77,-39.70,1
-0.02,0.03,0.99,-0.43,-4.27,0.31,22.17,2.77,-39.88,1
-0.01,0.03,0.99,3.78,-4.46,2.69,21.41,2.15,-40.11,1
-0.01,0.02,1.00,5.68,-4.46,5.62,21.75,1.94,-39.76,1
-0.02,0.01,1.00,8.00,-4.64,5.13,21.51,2.27,-40.00,1
-0.01,0.02,1.00,5.80,-5.68,3.48,21.70,2.44,-40.20,1
-0.01,0.02,0.99,3.85,-3.17,1.46,21.36,2.91,-40.30,1
-0.02,0.02,0.99,4.21,-3.30,0.12,21.83,3.00,-39.97,1
-0.02,0.02,1.00,2.93,-2.56,0.79,21.67,2.26,-40.64,1
-0.02,0.02,0.99,0.06,-3.17,0.98,21.69,2.44,-40.17,1
-0.02,0.03,0.99,0.43,-2.87,-0.67,21.17,1.55,-39.97,1
-0.02,0.03,0.99,4.39,-2.99,0.79,21.68,2.91,-39.62,1
-0.02,0.03,1.00,7.32,-3.54,0.49,22.03,1.42,-39.90,1
-0.02,0.03,0.99,9.83,-4.39,-0.18,21.39,2.22,-39.10,1
-0.02,0.02,1.00,4.39,-3.48,1.34,21.64,2.56,-39.44,1
-0.02,0.03,1.00,3.48,-4.76,0.79,21.22,2.17,-39.21,1
-0.02,0.02,0.99,2.44,-2.56,1.40,21.29,2.32,-38.81,1
-0.03,0.02,1.00,0.18,-3.60,0.73,21.40,2.23,-39.50,1
-0.02,0.03,1.00,3.23,-2.69,1.04,21.20,2.80,-39.36,1
-0.03,0.03,0.99,3.97,-3.30,1.46,21.86,2.71,-40.36,1
-0.03,0.01,1.02,3.78,0.49,6.65,21.46,2.03,-39.23,1
-0.02,0.04,0.97,6.04,-3.42,3.17,21.47,2.59,-38.54,1
-0.02,0.02,0.99,3.30,-5.68,0.92,21.50,2.58,-39.55,1
-0.03,0.03,1.03,-7.45,-6.77,2.87,20.97,2.15,-38.98,1
-0.03,0.02,0.99,9.52,-6.35,-1.28,21.24,2.16,-40.47,1
-0.03,0.02,1.03,6.29,-6.10,1.71,21.00,2.17,-40.43,1
-0.03,0.01,1.02,10.38,-3.30,1.16,21.39,2.34,-39.50,1
-0.03,0.01,1.00,4.09,-2.14,1.46,21.56,2.38,-39.97,1
-0.02,0.03,0.98,8.06,-2.44,0.55,21.08,2.53,-40.14,1
-0.02,0.02,0.99,-1.40,1.59,-9.09,20.98,2.86,-40.32,1
-0.02,0.04,0.99,-0.79,-2.69,-0.24,20.97,2.60,-39.42,1
-0.02,0.03,0.99,4.39,-2.38,-0.98,21.08,2.54,-39.29,1
-0.02,0.03,0.99,6.53,-2.32,-0.12,21.59,2.59,-38.90,1
-0.02,0.03,1.00,3.36,-1.34,2.93,20.90,2.14,-39.11,1
-0.02,0.03,0.99,4.82,-3.05,3.78,21.23,2.67,-40.33,1
-0.01,0.03,0.99,7.57,-2.56,1.10,21.01,2.91,-39.50,1
-0.03,0.02,1.00,8.67,-2.62,0.55,21.13,2.75,-39.48,1
-0.02,0.01,0.99,13.24,-3.85,-1.95,20.65,2.97,-40.30,1
-0.01,0.03,0.99,5.62,-3.54,-2.62,20.52,2.88,-40.93,1
-0.02,0.00,0.99,6.35,-1.04,-8.30,20.62,3.34,-39.49,1
-0.02,0.00,1.00,-0.73,-3.60,0.55,20.53,3.86,-39.28,1
-0.02,0.03,1.00,0.43,-3.66,2.08,20.79,3.25,-39.14,1
-0.01,0.02,0.99,0.79,-3.60,-1.34,20.68,2.77,-39.09,1
-0.03,0.02,0.99,-0.67,-2.44,0.37,20.63,2.99,-38.53,1
-0.02,0.03,0.99,5.74,-3.72,2.99,20.62,3.39,-39.72,1
-0.01,0.02,1.00,2.93,-0.61,1.65,20.52,3.23,-40.93,1
-0.01,0.03,1.00,4.70,-2.44,1.95,20.34,3.03,-39.22,1
-0.02,0.03,1.01,7.02,2.56,-4.39,20.57,3.06,-39.65,1
-0.01,0.04,0.98,-6.96,-1.65,-5.37,20.59,3.12,-39.95,1
-0.01,0.02,0.97,7.81,0.43,4.58,20.19,3.30,-39.72,1
-0.01,0.03,1.03,9.83,0.12,-0.73,20.64,3.23,-40.08,1
0.01,0.02,0.97,12.88,4.70,-3.17,21.11,3.42,-39.61,1
0.02,0.01,1.02,9.95,9.09,-2.75,20.51,4.15,-39.88,1
0.02,0.01,0.95,-3.78,3.05,-4.15,21.11,3.82,-40.32,1
0.03,0.04,0.99,-9.52,-4.15,-4.39,20.54,2.98,-39.77,1
0.03,0.03,0.97,5.07,-3.23,1.95,20.85,3.22,-39.81,1
0.00,0.06,1.04,5.74,-1.16,-1.71,20.67,3.78,-40.97,1
0.01,0.03,0.98,6.84,-3.17,-1.10,21.04,3.27,-40.78,1
0.01,0.04,0.98,0.06,-1.71,1.40,21.12,2.83,-40.26,1
0.03,0.04,0.97,0.73,-2.08,1.71,21.06,3.34,-40.52,1
0.01,0.06,0.99,-10.01,-4.64,-2.50,21.19,3.04,-41.05,1
0.03,0.06,1.00,5.13,-2.81,-0.18,20.91,1.79,-41.11,1
0.01,0.08,0.98,-1.28,-3.36,-1.77,20.51,2.70,-40.52,1
0.01,0.07,1.02,4.27,-6.47,1.10,20.80,2.82,-39.95,1
0.02,0.04,0.97,9.58,-5.80,0.31,20.54,3.31,-40.08,1
0.01,0.03,0.99,6.10,-6.77,-0.43,20.29,3.08,-40.42,1
0.00,0.06,0.99,2.69,-8.79,2.69,19.87,3.72,-39.49,1
0.00,0.02,0.98,16.60,-18.43,9.22,19.84,3.69,-40.77,1
-0.02,0.01,1.01,12.88,-14.71,0.61,19.21,3.88,-40.60,1
-0.03,0.05,1.00,13.85,-5.80,-1.40,19.12,4.54,-41.75,1
-0.03,-0.01,1.00,14.10,-5.43,-2.62,18.47,4.81,-40.22,1
-0.03,0.02,1.00,5.19,-1.71,-1.10,18.60,5.20,-39.60,1
-0.02,0.01,0.99,13.79,1.22,0.73,18.99,5.25,-39.28,1
-0.02,-0.01,0.99,2.62,-1.16,-1.89,18.71,5.31,-39.32,1
-0.02,0.01,0.99,11.72,0.24,0.12,18.75,5.27,-38.98,1
-0.01,-0.01,0.99,4.21,-1.46,-3.85,18.64,6.58,-39.12,1
-0.01,0.00,0.99,-0.06,-0.98,-2.20,18.85,5.83,-38.93,1
-0.01,-0.00,0.99,3.05,-3.54,0.43,18.03,5.81,-39.87,1
-0.02,-0.01,0.99,2.69,-3.97,-0.06,18.36,5.43,-39.82,1
-0.02,-0.00,1.00,2.08,-3.72,1.34,18.24,5.79,-39.53,1
-0.02,-0.01,1.00,4.88,-3.78,1.77,17.83,5.57,-38.99,1
-0.02,-0.01,1.01,9.58,-3.54,0.98,18.32,5.62,-38.75,1
-0.02,-0.02,0.98,7.02,-4.33,1.04,18.14,6.37,-39.11,1
-0.02,-0.02,1.00,4.21,-2.81,-0.12,18.10,5.49,-39.99,1
-0.02,-0.01,0.99,3.54,-2.75,1.34,18.37,5.97,-38.09,1
-0.02,-0.01,0.99,2.38,-3.11,0.18,18.70,5.70,-39.86,1
-0.02,-0.01,1.00,3.23,-2.81,0.49,18.04,5.58,-38.67,1
-0.02,-0.01,0.99,2.44,-3.17,1.53,18.32,5.79,-39.72,1
-0.02,-0.00,1.00,3.11,-2.62,1.34,18.35,5.75,-39.43,1
-0.02,-0.01,0.99,3.60,-2.44,0.85,18.16,6.10,-39.29,1
-0.02,-0.00,0.99,2.87,-2.62,1.10,18.12,5.76,-39.70,1
-0.02,-0.00,0.99,1.77,-2.14,0.73,18.51,5.40,-38.96,1
-0.02,-0.00,1.00,2.87,-3.11,0.79,17.88,5.62,-39.59,1
-0.02,-0.00,0.99,3.97,-2.01,1.10,18.43,5.98,-39.09,1
-0.02,-0.00,1.00,2.44,-2.32,1.04,18.26,5.97,-39.39,1
-0.02,0.00,1.00,3.54,-3.05,2.08,18.20,5.49,-38.67,1
-0.02,0.00,0.99,4.46,-3.48,0.98,18.25,5.81,-38.92,1
-0.02,0.00,1.00,2.69,-3.48,1.04,18.31,5.70,-39.11,1
-0.02,0.00,0.99,3.72,-3.91,1.40,19.04,6.37,-39.75,1
-0.02,0.00,0.99,3.54,-3.66,1.04,18.14,5.55,-40.28,1
-0.02,0.00,0.99,2.38,-3.23,0.49,18.18,5.77,-38.76,1
-0.02,0.00,1.00,1.95,-3.78,0.92,18.13,5.41,-39.78,1
-0.02,0.01,0.99,2.20,-3.23,1.22,18.13,4.82,-39.89,1
-0.02,0.01,0.99,3.91,-3.23,0.43,18.31,5.19,-39.43,1
-0.02,0.01,0.99,3.54,-2.93,1.16,18.35,4.94,-39.36,1
-0.02,0.01,0.99,2.69,-3.23,0.37,18.40,5.79,-39.54,1
-0.02,0.01,0.99,3.48,-2.08,1.22,18.66,5.31,-40.31,1
-0.02,0.01,0.99,5.49,-3.36,1.34,17.96,5.16,-40.14,1
-0.02,0.01,1.00,5.13,-3.91,1.04,18.18,5.41,-38.87,1
-0.02,0.01,0.99,6.77,-3.30,0.49,17.99,5.98,-39.70,1
-0.02,-0.00,0.98,8.42,-2.01,4.27,17.92,4.72,-38.40,1
-0.02,0.00,0.99,8.54,-4.09,3.48,18.03,5.21,-40.36,1
-0.05,0.02,0.93,-57.25,1.28,-19.84,18.85,4.52,-40.32,1
-0.03,0.02,1.01,7.02,-1.46,2.62,19.41,3.65,-40.33,1
-0.03,0.02,1.00,13.55,-5.25,4.33,19.81,3.36,-39.59,1
-0.02,-0.00,0.99,18.98,-2.93,3.97,19.92,3.81,-40.14,1
-0.03,-0.00,1.00,29.42,-4.27,5.86,19.92,3.85,-39.07,1
-0.02,-0.01,0.98,7.63,-2.75,1.40,19.78,4.49,-39.32,1
-0.03,-0.02,0.99,4.88,-2.14,2.81,20.07,4.10,-38.96,1
-0.03,-0.02,1.00,2.69,-3.42,2.01,19.80,3.77,-39.32,1
-0.03,-0.02,0.99,2.08,-3.72,3.23,20.21,4.74,-39.27,1
-0.03,-0.01,0.99,0.37,-5.19,1.34,19.69,4.39,-38.28,1
-0.03,-0.01,0.99,-0.61,-4.15,0.49,20.09,4.66,-39.37,1
-0.04,-0.01,0.98,0.73,-3.91,1.53,19.92,4.54,-39.23,1
-0.03,0.02,1.00,-8.54,-4.76,3.60,19.35,4.22,-39.45,1
-0.03,0.01,1.00,0.37,-4.76,4.27,19.91,3.64,-39.29,1
-0.04,0.01,1.00,7.51,-2.75,3.78,19.57,3.89,-40.09,1
-0.06,0.04,0.99,6.23,-3.48,0.55,20.31,4.31,-39.12,1
-0.03,-0.00,0.99,3.66,-2.69,1.95,19.92,3.82,-38.83,1
-0.04,0.01,1.00,4.33,-0.18,0.12,20.12,4.13,-38.93,1
-0.03,-0.01,1.00,7.75,6.29,-0.24,20.09,4.19,-39.48,1
-0.02,-0.02,1.00,5.62,0.92,0.43,19.87,3.87,-39.12,1
-0.01,-0.01,1.00,-0.31,11.96,3.85,20.40,3.86,-39.21,1
0.00,0.01,1.00,4.64,0.43,1.04,19.92,4.08,-38.88,1
-0.01,0.01,1.00,9.28,-2.87,0.31,20.46,3.96,-39.45,1
-0.01,-0.00,1.00,3.11,-4.21,1.77,20.31,4.49,-39.55,1
-0.02,0.01,1.00,2.20,-7.81,3.72,19.81,3.88,-38.99,1
-0.02,-0.01,0.99,11.60,-0.73,5.43,19.86,4.33,-39.33,1
-0.01,-0.00,0.99,6.90,-1.59,-3.91,19.84,4.70,-38.76,1
0.00,-0.02,0.99,7.57,0.37,-8.91,19.93,4.99,-40.01,1
-0.01,-0.01,1.01,12.57,8.91,-34.85,19.93,4.60,-39.65,1
-0.00,-0.02,1.00,3.85,-1.22,-13.43,19.98,4.44,-37.72,1
0.01,-0.02,0.99,5.37,-2.32,0.49,20.13,4.58,-39.31,1
0.01,-0.02,0.99,6.16,-2.75,2.38,19.78,4.60,-38.98,1
0.01,-0.03,0.99,3.30,-2.81,1.77,19.78,4.68,-39.10,1
0.01,-0.02,0.99,4.15,-2.87,1.77,19.74,4.30,-38.59,1
0.01,-0.03,0.99,2.62,-0.55,3.30,20.00,4.68,-39.42,1
0.00,0.01,0.98,2.20,1.40,5.07,20.29,4.55,-39.17,1
0.03,-0.02,0.98,-3.48,-2.32,5.13,20.91,3.45,-38.75,1
0.03,-0.01,0.99,4.33,-3.30,1.22,21.00,3.88,-38.24,1
0.03,-0.01,0.99,4.52,-3.54,1.77,21.48,3.43,-38.66,1
