ax,ay,az,gx,gy,gz,mx,my,mz,label
-0.02,-1.01,-0.11,2.38,-0.43,1.53,19.92,16.36,0.74,3
-0.03,-1.01,-0.10,-0.06,-2.26,2.44,20.08,16.00,0.26,3
-0.02,-1.01,-0.09,-0.37,-1.59,1.40,20.28,16.98,1.04,3
-0.02,-1.01,-0.12,2.75,-0.61,1.65,20.34,16.16,-0.22,3
-0.02,-1.00,-0.09,1.16,-2.38,2.08,19.82,16.61,0.79,3
-0.02,-1.01,-0.07,2.81,-2.20,1.46,19.78,16.36,0.83,3
-0.02,-1.01,-0.09,5.92,-2.56,0.79,20.00,16.20,0.23,3
-0.03,-1.01,-0.08,3.66,-2.32,1.22,20.40,16.65,0.88,3
-0.02,-1.00,-0.11,2.93,-1.04,2.32,20.64,16.43,0.81,3
-0.02,-1.01,-0.08,4.46,-3.11,0.98,19.91,17.16,-0.24,3
-0.02,-1.01,-0.08,2.69,-2.38,1.53,19.91,16.66,0.40,3
-0.02,-1.00,-0.09,3.23,-1.59,1.83,19.95,16.80,-0.44,3
-0.03,-1.01,-0.09,4.03,-3.36,1.46,20.18,16.74,0.93,3
-0.02,-1.01,-0.09,4.09,-2.87,1.46,20.19,17.11,0.82,3
-0.02,-1.01,-0.09,2.56,-2.69,1.83,20.21,17.07,0.17,3
-0.02,-1.01,-0.08,4.52,-3.36,1.28,20.10,16.50,-0.15,3
-0.02,-1.01,-0.08,2.69,-3.05,1.77,20.15,16.20,-1.05,3
-0.02,-1.01,-0.08,5.37,-2.93,1.34,20.03,16.82,0.06,3
-0.02,-1.02,-0.09,3.54,-2.44,1.28,19.95,16.69,-0.11,3
-0.02,-1.01,-0.08,3.85,-2.75,1.71,19.96,16.46,-1.23,3
-0.02,-1.01,-0.08,4.58,-3.05,1.65,19.54,16.24,-0.74,3
-0.02,-1.01,-0.07,4.82,-3.30,1.53,20.61,16.14,-0.71,3
-0.02,-1.01,-0.08,3.30,-2.08,1.10,20.24,16.41,-0.90,3
-0.02,-1.01,-0.08,2.62,-3.05,2.08,19.38,15.94,0.09,3
-0.02,-1.01,-0.08,2.87,-2.69,1.83,19.74,16.72,-0.24,3
-0.02,-1.01,-0.07,5.49,-2.87,1.46,20.70,16.26,0.27,3
-0.02,-1.01,-0.08,4.27,-2.38,1.34,20.43,16.66,-0.16,3
-0.02,-1.01,-0.07,3.85,-2.32,1.28,20.17,16.15,0.31,3
-0.01,-1.01,-0.12,4.88,-13.31,2.01,20.06,16.19,-0.62,3
-0.02,-1.01,-0.08,3.97,-2.69,2.01,20.39,16.17,0.33,3
-0.02,-1.01,-0.09,3.60,-2.75,2.01,20.79,16.16,0.04,3
-0.02,-1.00,-0.10,3.60,-0.31,2.08,19.97,16.66,-0.20,3
-0.02,-1.03,-0.07,4.58,-2.69,0.67,20.28,15.98,-0.18,3
-0.02,-1.01,-0.08,3.72,-3.05,1.46,20.32,15.71,0.01,3
-0.03,-1.02,-0.07,4.58,-3.11,0.85,20.51,15.95,-1.22,3
-0.02,-1.01,-0.08,1.46,-2.08,2.26,20.10,15.83,-0.82,3
-0.02,-1.01,-0.07,4.88,-2.20,1.53,20.36,16.02,-0.28,3
-0.02,-1.00,-0.05,2.38,-3.30,2.08,20.43,16.28,0.06,3
-0.02,-1.00,-0.09,2.69,0.31,1.71,20.47,16.52,0.15,3
-0.02,-1.00,-0.09,1.59,0.06,1.95,20.36,17.21,0.20,3
-0.02,-1.01,-0.07,1.16,-1.40,2.14,20.14,16.44,-1.10,3
-0.02,-1.02,-0.06,1.16,-2.26,1.77,20.75,16.26,-0.83,3
-0.02,-1.02,-0.05,-0.43,-4.76,2.93,20.35,16.39,-1.05,3
-0.02,-1.01,-0.05,-0.49,-4.15,2.38,20.20,17.43,-0.81,3
-0.01,-1.01,-0.04,-1.40,-3.42,2.08,20.26,16.58,-1.01,3
-0.01,-1.01,-0.03,1.04,-2.38,3.17,20.36,16.76,-1.21,3
-0.00,-1.00,-0.04,0.24,-1.59,3.05,20.79,17.50,-0.98,3
0.02,-1.04,0.00,-3.30,-1.04,3.36,20.54,17.37,-1.40,3
-0.02,-1.04,-0.03,0.55,-2.69,1.65,20.32,17.21,-1.99,3
-0.00,-1.02,-0.02,-3.30,-3.78,4.52,20.34,16.93,-2.27,3
0.00,-1.01,0.01,-0.73,-4.33,1.65,20.64,16.81,-2.43,3
-0.01,-1.02,0.00,2.81,-2.81,0.92,20.45,17.37,-2.64,3
0.00,-1.09,-0.11,14.47,-8.91,-18.07,19.76,17.30,-2.65,3
-0.02,-1.04,0.00,4.15,-3.78,2.08,20.12,16.61,-2.37,3
-0.02,-1.01,-0.01,2.50,-6.59,0.61,20.51,16.86,-1.84,3
-0.03,-1.04,-0.01,3.54,-0.18,1.71,21.00,17.29,-0.99,3
-0.02,-1.04,-0.01,-3.60,-3.17,1.28,20.43,17.48,-1.78,3
0.00,-1.01,0.01,-10.50,-6.29,18.55,20.68,17.60,-2.29,3
-0.00,-1.01,0.04,-2.81,-3.97,4.46,21.04,18.44,-2.97,3
0.01,-1.03,0.03,-5.80,-5.62,14.34,20.75,17.27,-2.56,3
0.01,-0.99,0.04,0.18,-0.37,5.43,21.24,17.50,-2.36,3
0.02,-1.00,0.05,0.73,-5.62,6.53,21.45,17.49,-2.76,3
0.01,-1.09,0.02,7.20,1.28,-6.96,21.23,17.70,-2.91,3
0.01,-1.03,0.04,0.92,-1.28,1.71,21.29,17.97,-2.36,3
0.01,-1.03,0.02,8.54,1.10,-2.50,21.20,17.85,-2.34,3
0.01,-1.00,0.03,4.64,-3.23,-0.92,21.06,17.79,-3.12,3
0.02,-1.02,0.05,5.74,-2.93,-0.98,21.12,17.80,-1.92,3
0.01,-1.00,0.04,9.09,-0.73,-3.60,21.12,17.69,-2.32,3
0.00,-1.03,0.00,9.28,1.04,-8.61,20.92,17.33,-2.73,3
0.00,-1.00,0.04,12.21,-5.49,-1.83,20.64,17.88,-2.54,3
-0.00,-1.02,0.01,9.52,-6.10,-1.59,20.14,18.10,-1.90,3
-0.01,-1.02,0.01,4.58,-3.66,-2.75,19.93,17.96,-2.04,3
-0.01,-1.03,0.00,0.43,-4.76,3.78,20.26,18.21,-2.71,3
-0.00,-1.00,0.03,-8.18,1.77,11.47,20.32,18.77,-2.01,3
0.00,-1.04,0.03,-6.71,1.71,7.75,20.51,18.80,-2.58,3
0.03,-1.01,0.05,-11.96,-1.34,27.40,21.11,18.58,-3.72,3
0.03,-1.02,0.06,-0.43,-0.98,13.85,21.44,18.76,-4.00,3
0.07,-0.97,0.05,-0.37,-0.85,19.78,21.78,18.30,-3.83,3
0.06,-1.01,0.06,0.55,-2.26,9.77,22.20,17.85,-3.64,3
0.09,-1.02,0.08,-1.53,-2.75,23.44,22.72,17.70,-4.16,3
0.10,-0.99,0.09,-5.98,0.79,19.84,23.22,17.98,-4.70,3
0.12,-1.01,0.09,1.16,-3.17,16.85,23.90,17.97,-4.27,3
0.14,-0.99,0.09,-2.50,3.36,23.44,24.37,17.79,-4.38,3
0.15,-0.99,0.09,4.15,-3.60,11.72,24.83,17.72,-4.75,3
0.17,-1.00,0.09,-2.69,0.12,16.30,25.50,17.63,-4.41,3
0.19,-1.00,0.10,-3.17,-0.49,20.08,25.57,17.31,-5.31,3
0.20,-0.95,0.11,-3.17,-4.46,16.54,26.07,17.81,-5.49,3
0.21,-0.99,0.12,-1.53,-0.18,3.66,26.05,17.33,-4.86,3
0.23,-1.00,0.12,-12.15,2.32,10.01,26.48,16.88,-6.02,3
0.23,-0.98,0.15,-13.49,-3.78,17.58,26.28,16.89,-6.30,3
0.23,-0.96,0.16,-4.52,-3.42,13.61,26.75,17.83,-5.51,3
0.24,-0.98,0.17,2.08,-2.20,8.73,27.37,17.37,-6.70,3
0.26,-0.97,0.16,-2.26,0.12,12.57,27.73,17.24,-5.74,3
0.26,-0.94,0.18,-2.81,-3.60,14.16,28.08,16.94,-6.36,3
0.27,-0.95,0.18,-2.01,-0.79,9.46,28.33,16.92,-6.09,3
0.27,-0.95,0.19,4.33,-2.08,9.46,28.83,16.96,-7.39,3
0.28,-0.93,0.17,15.32,-6.59,5.86,28.42,16.92,-6.15,3
0.29,-0.98,0.18,3.60,-1.16,3.85,28.20,17.10,-6.35,3
0.28,-0.92,0.16,0.67,-4.82,3.36,28.81,17.02,-6.92,3
0.30,-0.98,0.18,-4.46,-3.66,0.73,29.02,16.77,-7.14,3
0.28,-0.95,0.18,-5.92,-5.43,0.92,29.08,16.03,-6.63,3
0.29,-0.96,0.20,-0.61,-3.66,1.28,29.04,16.96,-7.36,3
0.28,-0.94,0.20,2.20,-3.97,1.83,29.33,16.39,-8.00,3
0.29,-0.95,0.20,-1.95,-0.85,2.81,28.66,16.63,-7.07,3
0.29,-0.95,0.22,3.54,-4.03,1.04,29.53,16.91,-7.76,3
0.30,-0.95,0.21,1.59,4.27,2.81,29.19,16.70,-7.59,3
0.29,-0.94,0.20,2.75,-0.73,2.08,29.28,16.39,-7.43,3
0.29,-0.95,0.22,1.16,-2.99,2.08,28.99,16.50,-7.29,3
0.29,-0.94,0.21,1.95,-3.60,2.81,28.97,16.21,-8.67,3
0.29,-0.94,0.22,-0.67,-1.83,3.17,28.93,16.96,-8.47,3
0.29,-0.95,0.22,3.17,-5.74,1.77,29.43,16.72,-8.23,3
0.29,-0.94,0.22,2.99,-4.21,2.14,29.17,16.50,-8.13,3
0.30,-0.94,0.22,4.82,-5.07,0.24,29.11,17.08,-8.20,3
0.30,-0.94,0.23,-4.64,-3.91,3.78,29.50,16.48,-8.18,3
0.29,-0.92,0.25,-14.47,-2.99,2.87,29.64,16.74,-9.31,3
0.30,-0.93,0.27,-11.84,-2.99,3.30,29.61,16.55,-9.27,3
0.30,-0.91,0.28,-2.01,-4.03,1.83,29.57,16.59,-9.64,3
0.29,-0.94,0.28,-0.37,-3.66,-0.55,29.87,16.38,-10.38,3
0.29,-0.91,0.29,3.05,-4.21,0.73,29.64,16.69,-9.05,3
0.29,-0.93,0.28,5.19,-3.66,-0.18,29.91,16.82,-9.30,3
0.30,-0.92,0.29,1.95,-3.48,0.49,29.85,17.11,-10.27,3
0.29,-0.93,0.29,3.36,-2.50,0.98,29.55,16.82,-10.29,3
0.28,-0.91,0.28,4.21,-3.66,-0.67,29.64,15.83,-10.85,3
0.29,-0.92,0.30,-0.49,-2.50,3.78,29.94,16.69,-10.25,3
0.28,-0.92,0.30,5.62,-2.69,1.53,29.87,16.46,-11.28,3
0.29,-0.93,0.29,7.20,-0.73,2.32,29.69,16.86,-11.18,3
0.29,-0.92,0.28,11.78,-2.87,-0.79,29.58,16.36,-10.24,3
0.29,-0.91,0.28,4.64,-2.08,1.95,29.69,16.64,-9.62,3
0.29,-0.92,0.28,3.23,-3.54,0.18,29.80,16.54,-9.67,3
0.29,-0.93,0.28,6.35,-2.81,0.92,29.66,16.64,-9.79,3
0.29,-0.93,0.27,7.81,-3.23,0.37,29.92,17.02,-9.48,3
0.29,-0.93,0.28,7.51,-2.50,0.73,29.46,16.58,-8.85,3
0.28,-0.93,0.26,12.45,-4.15,0.31,29.53,16.52,-9.83,3
0.28,-0.93,0.27,9.16,-3.23,1.40,29.58,16.86,-9.58,3
0.28,-0.93,0.27,12.02,-3.11,-0.79,29.22,16.61,-10.31,3
0.28,-0.94,0.25,10.07,-2.99,-0.24,29.30,16.91,-9.12,3
0.28,-0.93,0.25,9.09,-1.95,-0.79,29.71,16.63,-8.41,3
0.28,-0.94,0.24,7.26,-1.04,1.04,28.97,17.19,-8.78,3
0.28,-0.94,0.24,6.35,-2.44,0.43,28.77,17.07,-8.85,3
0.28,-0.95,0.23,7.32,-1.89,0.92,29.10,16.86,-8.06,3
0.28,-0.93,0.24,6.47,-3.17,1.10,28.82,16.88,-8.08,3
0.28,-0.95,0.23,5.43,-2.56,0.61,29.20,16.89,-7.52,3
0.28,-0.94,0.23,5.68,-2.87,0.67,28.50,16.89,-8.24,3
0.28,-0.95,0.23,5.19,-3.23,0.85,29.25,17.04,-9.01,3
0.28,-0.94,0.23,4.33,-2.38,0.12,29.21,17.72,-8.08,3
0.28,-0.95,0.23,4.21,-2.08,0.49,28.86,16.97,-8.87,3
0.27,-0.94,0.23,3.85,-2.81,1.16,29.13,17.04,-7.98,3
0.28,-0.95,0.23,4.52,-3.17,0.18,28.45,17.68,-8.79,3
0.27,-0.94,0.23,4.88,-3.17,0.73,28.50,16.85,-8.11,3
0.27,-0.94,0.23,4.76,-2.08,-0.85,28.43,18.14,-8.14,3
0.27,-0.95,0.23,4.88,-2.20,0.24,28.45,17.10,-7.60,3
0.27,-0.95,0.22,6.59,-1.89,-1.59,28.37,17.37,-9.39,3
0.27,-0.96,0.23,2.87,-2.93,2.20,28.52,17.08,-7.97,3
0.27,-0.94,0.23,2.32,-1.53,0.55,28.64,17.20,-8.59,3
0.27,-0.95,0.23,4.58,-2.99,0.85,28.17,16.96,-7.84,3
0.27,-0.95,0.22,4.52,-2.56,0.12,28.32,17.09,-7.58,3
0.27,-0.95,0.22,4.03,-2.81,0.43,28.32,18.32,-7.79,3
0.26,-0.95,0.22,4.58,-2.14,0.00,28.26,17.92,-9.12,3
0.26,-0.95,0.22,3.97,-3.05,0.79,28.37,17.72,-8.09,3
0.26,-0.95,0.22,5.80,-3.30,-2.87,27.97,17.58,-8.59,3
0.26,-0.95,0.22,4.39,-4.58,-3.30,27.99,17.59,-7.48,3
0.24,-0.94,0.21,5.19,-6.35,-8.73,27.70,17.33,-7.95,3
0.23,-0.96,0.22,19.90,-6.47,-23.68,27.20,17.87,-7.54,3
0.22,-0.98,0.20,6.41,-5.43,-17.21,26.54,18.73,-7.48,3
0.20,-0.95,0.21,-14.47,-0.06,-10.93,26.16,18.08,-7.52,3
0.19,-0.99,0.24,-12.33,-5.74,-17.82,25.88,18.57,-8.83,3
0.16,-0.95,0.26,-13.12,-3.60,-7.57,26.21,18.23,-8.24,3
0.16,-0.98,0.28,4.21,-4.33,-10.56,25.65,18.40,-10.05,3
0.14,-0.95,0.26,-12.02,-5.92,-10.44,25.28,18.05,-9.09,3
0.13,-0.98,0.27,-2.32,-9.83,-15.81,24.80,18.57,-9.42,3
0.11,-0.98,0.30,5.55,-7.45,-15.32,24.27,19.59,-10.19,3
0.07,-0.94,0.29,-5.80,-8.97,-25.82,23.68,18.80,-9.57,3
0.05,-0.96,0.29,-4.94,-8.61,-31.62,22.53,19.40,-11.11,3
0.01,-0.96,0.30,-3.97,-10.25,-11.29,22.02,19.12,-10.73,3
0.01,-0.95,0.32,-1.83,-6.10,-23.38,21.57,19.92,-9.80,3
-0.02,-0.96,0.31,15.44,-6.65,-26.73,20.78,18.99,-10.39,3
-0.06,-0.94,0.30,9.89,-7.32,-30.21,20.24,19.34,-10.84,3
-0.08,-1.00,0.28,16.66,-3.23,-33.63,18.90,19.36,-9.75,3
-0.12,-0.99,0.27,9.28,-8.18,-28.63,18.37,18.85,-9.39,3
-0.14,-0.92,0.27,19.10,-6.47,-32.71,16.82,19.80,-8.62,3
-0.18,-0.97,0.27,14.04,-5.13,-12.76,16.11,19.13,-9.64,3
-0.19,-0.95,0.26,9.89,-1.95,-18.86,16.47,19.80,-8.11,3
-0.21,-0.96,0.26,18.07,-5.07,-21.00,15.32,18.55,-8.39,3
-0.24,-0.98,0.22,11.66,-5.00,-16.60,14.38,19.34,-8.62,3
-0.30,-1.01,0.25,0.98,-8.42,-12.51,14.04,18.30,-7.84,3
-0.25,-0.94,0.24,-7.87,-5.49,-1.95,13.73,19.20,-8.92,3
-0.26,-0.95,0.25,-0.67,-8.06,-7.20,14.21,18.60,-8.47,3
-0.28,-0.93,0.24,6.84,-4.88,-7.39,13.56,19.07,-8.72,3
-0.27,-0.94,0.22,14.34,-1.28,-0.67,13.29,19.19,-8.97,3
-0.29,-0.95,0.24,-3.72,-3.42,-6.59,13.35,18.54,-7.95,3
-0.29,-0.93,0.24,-0.85,-4.15,-7.75,13.75,18.63,-8.47,3
-0.31,-0.95,0.25,-2.93,-3.97,-6.71,12.87,19.23,-8.67,3
-0.31,-0.92,0.24,0.37,-3.85,-2.44,12.38,18.19,-10.11,3
-0.32,-0.96,0.28,0.24,-3.30,0.18,12.82,18.59,-9.07,3
-0.32,-0.91,0.25,-0.31,-9.09,-10.74,12.56,18.33,-8.56,3
-0.32,-0.92,0.26,-0.67,-2.87,3.17,12.79,18.41,-9.05,3
-0.31,-0.92,0.26,-3.48,-2.38,-1.22,12.78,18.55,-9.69,3
-0.33,-0.92,0.27,2.32,-4.03,2.62,12.70,18.27,-9.78,3
-0.33,-0.92,0.27,1.71,-5.74,-0.18,12.35,18.99,-9.56,3
-0.33,-0.92,0.27,2.93,-2.75,2.32,12.48,18.71,-9.34,3
-0.32,-0.91,0.27,2.93,-2.56,0.67,12.70,18.70,-9.18,3
-0.32,-0.92,0.28,4.39,-2.75,1.77,13.04,18.40,-9.59,3
-0.33,-0.92,0.27,2.75,-3.91,-0.61,12.59,18.80,-9.34,3
-0.33,-0.91,0.27,6.90,-4.76,-0.18,12.74,18.58,-9.42,3
-0.34,-0.92,0.27,2.50,-4.70,-0.67,12.08,18.65,-10.46,3
-0.33,-0.91,0.27,5.86,-4.52,0.12,12.23,18.70,-9.24,3
-0.34,-0.92,0.27,5.74,-3.72,0.61,12.52,18.79,-9.69,3
-0.34,-0.91,0.27,4.94,-3.48,0.43,12.35,18.05,-10.28,3
-0.34,-0.92,0.26,6.47,-2.62,0.43,11.76,18.08,-9.11,3
-0.34,-0.92,0.27,2.93,-2.50,1.46,11.41,18.84,-10.06,3
-0.34,-0.91,0.26,5.43,-2.62,1.59,12.04,18.37,-9.59,3
-0.34,-0.92,0.27,4.70,-3.23,1.53,12.19,18.69,-9.80,3
-0.34,-0.91,0.26,5.31,-2.93,1.34,11.94,18.53,-9.91,3
-0.34,-0.91,0.27,5.98,-3.36,1.16,12.18,18.60,-8.69,3
-0.34,-0.92,0.27,4.03,-2.81,2.32,12.49,18.77,-9.39,3
-0.33,-0.91,0.26,9.34,-2.81,2.08,11.83,17.99,-9.35,3
-0.34,-0.92,0.26,5.07,-3.17,1.77,12.07,18.70,-9.22,3
-0.34,-0.92,0.26,4.33,-2.87,0.85,12.27,18.36,-9.22,3
-0.34,-0.92,0.26,3.91,-2.32,1.83,11.96,18.60,-8.78,3
-0.33,-0.91,0.26,4.70,-3.85,0.55,12.40,18.27,-9.39,3
-0.34,-0.92,0.26,2.93,-2.26,2.08,12.19,18.62,-9.45,3
-0.34,-0.92,0.26,4.82,-3.85,1.16,11.89,17.70,-9.72,3
-0.34,-0.92,0.26,4.27,-2.93,1.71,12.21,18.42,-7.63,3
-0.34,-0.91,0.26,3.17,-2.69,1.34,12.10,18.68,-9.16,3
-0.34,-0.91,0.26,5.86,-2.38,1.53,12.17,18.31,-9.05,3
-0.34,-0.92,0.27,2.50,-1.46,2.32,12.15,18.49,-8.72,3
-0.34,-0.91,0.26,4.33,-2.50,2.14,11.69,18.75,-9.12,3
-0.34,-0.92,0.26,4.27,-2.93,0.92,12.59,19.32,-8.48,3
-0.34,-0.92,0.26,4.82,-3.97,1.22,12.02,18.64,-8.63,3
-0.34,-0.92,0.26,5.68,-2.56,2.69,12.33,18.46,-8.39,3
-0.34,-0.92,0.26,4.46,-3.36,1.34,12.65,18.41,-8.79,3
-0.34,-0.92,0.26,3.48,-2.87,0.67,12.51,18.53,-9.36,3
-0.34,-0.92,0.26,5.98,-2.44,1.40,12.52,18.23,-9.40,3
-0.34,-0.92,0.26,3.30,-2.38,0.98,12.43,18.33,-9.23,3
-0.34,-0.92,0.26,4.27,-2.93,1.65,12.37,18.52,-8.87,3
-0.34,-0.92,0.26,4.52,-3.48,1.40,11.89,18.26,-9.42,3
-0.34,-0.91,0.26,3.91,-3.48,1.40,12.93,18.21,-9.44,3
-0.34,-0.92,0.26,5.62,-2.75,1.28,11.82,17.98,-9.25,3
-0.34,-0.92,0.26,3.48,-2.38,2.14,12.22,18.88,-9.28,3
-0.34,-0.92,0.26,6.10,-2.87,1.28,12.28,18.12,-10.22,3
-0.34,-0.92,0.26,2.87,-2.26,2.26,12.38,18.13,-8.80,3
-0.34,-0.92,0.26,4.21,-2.26,2.08,12.48,18.60,-9.57,3
-0.34,-0.92,0.26,3.97,-2.87,1.71,12.51,18.21,-9.40,3
-0.34,-0.92,0.26,3.85,-2.93,1.59,12.59,18.20,-9.83,3
-0.34,-0.92,0.26,4.88,-2.69,1.65,12.18,18.40,-9.20,3
-0.34,-0.92,0.26,3.66,-2.14,2.26,11.96,17.91,-9.29,3
-0.33,-0.92,0.26,5.07,-3.05,0.31,12.24,18.12,-8.11,3
-0.34,-0.92,0.26,3.60,-2.99,2.08,12.11,18.08,-9.14,3
-0.34,-0.92,0.26,4.21,-2.81,0.73,12.28,18.14,-8.95,3
-0.34,-0.92,0.26,3.54,-2.81,2.75,12.16,17.90,-8.94,3
-0.34,-0.92,0.26,4.15,-3.60,1.16,12.26,17.83,-8.67,3
-0.34,-0.92,0.26,5.25,-3.42,1.83,12.95,17.60,-9.27,3
-0.34,-0.92,0.26,4.33,-3.23,1.28,12.19,17.76,-9.11,3
-0.34,-0.92,0.25,5.13,-2.93,1.95,12.54,18.23,-9.72,3
-0.34,-0.92,0.26,3.11,-2.50,1.40,12.71,17.88,-9.91,3
-0.34,-0.92,0.26,5.43,-3.11,1.53,13.10,18.48,-9.40,3
-0.34,-0.92,0.26,2.87,-1.71,2.38,12.43,18.62,-9.14,3
-0.34,-0.91,0.26,6.41,-4.09,3.05,12.22,18.03,-9.70,3
-0.34,-0.92,0.25,2.87,-2.50,1.83,12.37,18.19,-9.19,3
-0.34,-0.93,0.26,5.92,-2.50,3.17,11.89,18.01,-9.08,3
-0.34,-0.92,0.26,6.10,-3.60,2.38,12.22,18.13,-9.53,3
-0.33,-0.92,0.26,4.33,-2.50,1.77,12.49,18.36,-8.46,3
-0.33,-0.92,0.26,5.62,-3.66,2.38,12.45,18.26,-9.92,3
-0.33,-0.92,0.25,3.91,-3.48,2.08,12.35,18.19,-8.64,3
-0.33,-0.92,0.26,4.21,-2.75,2.75,12.78,18.55,-9.09,3
-0.33,-0.92,0.26,5.13,-3.36,3.48,12.52,18.44,-9.74,3
-0.33,-0.93,0.26,2.38,-2.38,3.91,12.55,18.20,-8.94,3
-0.33,-0.93,0.25,4.70,-2.44,5.07,12.88,18.18,-9.78,3
-0.32,-0.92,0.26,5.92,-2.26,4.21,13.07,19.03,-9.24,3
-0.32,-0.95,0.26,4.70,1.46,7.32,13.51,18.58,-10.03,3
-0.32,-0.92,0.26,3.85,-3.05,7.32,13.12,18.46,-9.11,3
-0.31,-0.93,0.25,6.29,-1.34,6.90,13.04,18.79,-8.83,3
-0.30,-0.94,0.26,5.62,0.00,9.09,12.73,18.40,-9.18,3
-0.30,-0.92,0.25,4.82,-3.42,7.45,13.44,18.59,-9.27,3
-0.29,-0.94,0.25,13.18,-0.92,11.60,13.62,18.99,-8.70,3
-0.28,-0.94,0.24,10.07,-2.93,11.96,13.81,19.15,-8.56,3
-0.28,-0.96,0.24,7.32,0.49,10.31,14.50,18.76,-8.33,3
-0.26,-0.95,0.22,10.86,-0.92,11.78,13.79,18.73,-8.45,3
-0.24,-0.96,0.23,9.16,0.00,16.85,14.71,18.90,-7.90,3
-0.23,-0.96,0.23,3.23,0.31,12.82,14.75,19.62,-7.58,3
-0.22,-0.96,0.23,4.27,-2.08,13.79,15.14,18.64,-7.56,3
-0.21,-0.97,0.23,1.53,0.61,11.17,15.42,19.51,-8.40,3
-0.20,-0.96,0.24,-1.83,0.12,17.70,15.63,19.13,-8.24,3
-0.18,-0.97,0.24,-4.09,2.20,17.70,16.04,19.03,-8.23,3
-0.16,-0.96,0.27,-4.15,0.67,19.47,16.69,19.03,-9.27,3
-0.15,-0.97,0.26,-2.62,1.95,16.05,16.89,19.30,-9.78,3
-0.14,-0.97,0.28,0.12,-1.46,14.34,16.98,19.51,-8.44,3
-0.12,-0.96,0.27,-2.20,-0.49,18.68,17.24,19.49,-10.45,3
-0.11,-0.97,0.28,-3.42,0.61,17.40,17.19,19.71,-9.22,3
-0.09,-0.98,0.29,-0.06,-0.79,15.99,18.35,19.48,-10.11,3
-0.08,-0.95,0.28,3.85,-2.87,17.94,18.86,19.46,-10.07,3
-0.07,-0.98,0.30,3.60,-1.53,15.32,19.34,19.58,-9.58,3
-0.05,-0.96,0.29,-0.55,-0.24,18.07,19.85,19.32,-11.04,3
-0.02,-0.97,0.30,0.79,2.81,19.84,19.57,19.34,-10.47,3
-0.02,-0.96,0.30,3.23,-1.95,18.74,20.67,19.19,-9.47,3
0.01,-0.95,0.29,-2.38,1.65,22.28,21.08,18.76,-10.38,3
0.02,-0.99,0.32,1.83,0.61,20.51,21.56,19.02,-11.49,3
0.05,-0.96,0.29,7.81,2.69,18.49,22.13,19.24,-11.58,3
0.06,-0.97,0.31,-4.70,2.32,20.08,23.21,18.76,-10.57,3
0.08,-0.95,0.31,4.46,0.98,17.40,23.22,18.53,-11.04,3
0.09,-0.97,0.31,2.56,0.98,14.34,23.54,18.74,-10.64,3
0.10,-0.97,0.33,-5.92,4.33,16.11,23.84,18.32,-11.54,3
0.11,-0.95,0.33,-4.52,-2.20,10.13,24.33,18.14,-11.46,3
0.14,-0.96,0.34,-8.85,2.14,20.87,25.27,18.01,-12.45,3
0.14,-0.93,0.34,-2.44,-0.55,16.91,25.40,18.43,-11.87,3
0.17,-0.95,0.36,4.15,1.34,17.52,26.17,17.87,-11.49,3
0.17,-0.94,0.34,15.99,-0.73,8.30,25.72,17.58,-11.18,3
0.19,-0.92,0.33,13.18,1.65,13.61,26.17,17.55,-11.16,3
0.19,-0.95,0.33,15.99,0.67,8.18,26.32,18.24,-11.52,3
0.20,-0.94,0.32,3.60,5.00,14.71,26.37,17.91,-11.01,3
0.23,-0.94,0.32,4.76,0.18,12.82,27.06,17.97,-11.19,3
0.23,-0.92,0.31,1.28,-1.65,13.61,27.51,18.08,-11.50,3
0.23,-0.93,0.33,1.53,-1.28,5.13,27.32,18.04,-11.50,3
0.23,-0.92,0.32,4.88,-1.34,5.19,27.77,17.94,-10.90,3
0.24,-0.93,0.33,0.18,-1.46,4.09,28.00,18.07,-11.00,3
0.24,-0.92,0.33,5.31,-2.08,5.37,27.56,17.48,-12.12,3
0.24,-0.93,0.33,1.16,-2.69,3.23,27.80,17.91,-11.17,3
0.25,-0.91,0.33,0.31,-2.38,7.69,27.84,17.18,-11.47,3
0.25,-0.92,0.33,3.91,-1.22,3.42,27.48,17.88,-11.40,3
0.26,-0.92,0.34,1.77,-3.23,2.75,27.97,17.29,-10.73,3
0.25,-0.91,0.34,0.18,-1.89,2.56,27.84,17.26,-11.15,3
0.26,-0.91,0.34,4.39,-3.54,1.10,27.89,17.43,-11.40,3
0.26,-0.93,0.34,6.71,-2.44,2.01,27.98,17.50,-10.97,3
0.25,-0.90,0.34,6.10,-3.36,1.53,27.98,17.47,-11.85,3
0.26,-0.92,0.33,5.19,-1.83,0.18,28.09,17.50,-12.27,3
0.25,-0.91,0.33,6.35,-3.17,0.43,28.02,18.01,-11.65,3
0.25,-0.93,0.33,4.27,-2.99,1.65,27.97,17.16,-12.70,3
0.26,-0.92,0.33,5.19,-2.01,0.43,27.27,17.88,-12.10,3
0.25,-0.92,0.33,4.82,-3.30,-0.31,28.03,17.40,-11.79,3
0.25,-0.91,0.33,5.31,-2.20,0.73,27.82,17.59,-12.30,3
0.25,-0.93,0.33,3.91,-2.44,0.85,27.94,17.80,-11.35,3
0.25,-0.91,0.33,4.52,-2.32,1.46,27.94,17.69,-11.01,3
0.25,-0.93,0.33,4.70,-2.32,0.55,28.20,18.32,-10.74,3
0.25,-0.92,0.33,4.82,-3.11,1.40,28.22,17.42,-11.17,3
0.25,-0.92,0.33,2.93,-2.44,1.34,28.27,17.66,-11.08,3
0.25,-0.92,0.33,3.72,-2.44,1.53,27.56,17.47,-12.01,3
0.25,-0.93,0.33,4.88,-3.30,0.55,27.81,17.25,-12.33,3
0.25,-0.92,0.33,4.64,-3.72,-0.12,28.32,17.74,-11.76,3
0.24,-0.92,0.33,6.84,-3.72,-2.14,27.47,17.49,-11.36,3
0.24,-0.93,0.33,4.33,-3.30,-0.79,28.21,18.10,-11.65,3
0.24,-0.92,0.32,2.81,-2.93,-1.16,27.56,17.75,-11.55,3
0.24,-0.93,0.34,2.87,-3.97,1.10,27.26,17.77,-11.19,3
0.24,-0.91,0.33,-3.48,-2.99,1.04,28.06,17.65,-11.84,3
0.24,-0.93,0.34,2.50,-3.54,-0.24,27.47,18.35,-11.07,3
0.23,-0.91,0.33,6.04,-3.72,0.55,27.54,17.94,-12.37,3
0.24,-0.93,0.35,-3.91,-3.60,-0.06,27.69,17.57,-11.88,3
0.23,-0.90,0.35,-3.60,-5.31,-1.83,27.71,18.10,-12.89,3
0.23,-0.91,0.36,-11.60,-5.55,-5.49,28.00,17.52,-13.02,3
0.22,-0.91,0.38,-4.27,-10.68,-11.35,27.40,18.02,-12.37,3
0.20,-0.91,0.39,-1.10,-11.90,-11.90,26.89,17.91,-13.16,3
0.18,-0.90,0.41,-8.48,-11.41,-9.95,26.65,18.55,-14.22,3
0.17,-0.89,0.43,-22.40,-10.50,-12.63,26.61,17.64,-14.78,3
0.15,-0.88,0.44,-24.66,-14.10,-15.69,25.96,17.99,-15.06,3
0.13,-0.90,0.50,-13.55,-12.57,-15.50,25.09,18.52,-15.42,3
0.12,-0.87,0.50,-30.58,-6.65,-7.20,24.71,18.41,-16.43,3
0.09,-0.75,0.51,-17.27,-6.71,3.91,24.73,18.20,-17.18,3
0.10,-0.86,0.57,-22.22,-6.65,-3.30,24.83,18.37,-18.09,3
0.08,-0.80,0.55,-30.21,-12.33,-4.33,24.63,18.37,-18.51,3
0.08,-0.81,0.61,-16.97,-10.25,-11.96,23.95,18.15,-19.80,3
0.07,-0.79,0.60,-17.15,-9.89,-6.16,23.72,18.18,-21.18,3
0.04,-0.79,0.63,-13.12,-15.69,-7.93,23.43,17.91,-20.42,3
0.03,-0.80,0.66,-15.20,-13.61,-8.79,23.01,18.55,-20.79,3
0.02,-0.76,0.64,3.60,-6.04,-0.49,22.47,17.96,-21.37,3
0.02,-0.78,0.66,-7.45,-9.22,-6.90,22.41,17.35,-21.91,3
0.00,-0.76,0.67,-9.70,-8.00,-2.20,22.81,17.44,-22.34,3
-0.00,-0.72,0.67,-9.64,-10.25,-0.98,21.98,17.75,-22.34,3
0.01,-0.70,0.67,-3.97,-5.43,-0.67,22.63,17.66,-22.42,3
-0.01,-0.74,0.69,-2.08,-5.25,1.89,21.89,17.30,-23.78,3
-0.01,-0.69,0.69,-11.29,-5.43,-0.79,22.30,17.92,-23.73,3
-0.01,-0.72,0.71,-4.33,-3.42,2.56,22.11,16.97,-23.43,3
-0.02,-0.71,0.70,0.24,-3.48,0.55,21.87,17.65,-23.79,3
-0.02,-0.74,0.72,-0.79,-3.66,2.14,22.08,16.71,-23.75,3
-0.02,-0.70,0.71,-6.29,-6.16,-0.31,22.02,17.09,-23.45,3
-0.02,-0.71,0.73,4.27,-3.48,2.81,22.25,17.13,-24.45,3
-0.02,-0.70,0.71,6.77,-3.30,1.59,21.81,17.33,-24.10,3
-0.02,-0.71,0.72,5.25,-3.42,1.59,22.18,16.66,-24.11,3
-0.02,-0.69,0.71,5.43,-3.36,1.40,22.46,16.59,-24.82,3
-0.02,-0.71,0.72,3.54,-2.62,1.34,21.92,16.76,-25.62,3
-0.02,-0.70,0.72,5.49,-3.05,1.53,22.16,16.86,-24.55,3
-0.02,-0.71,0.71,4.88,-2.75,2.01,22.52,17.00,-24.23,3
-0.02,-0.71,0.72,3.30,-2.69,1.34,22.09,17.37,-24.10,3
-0.01,-0.70,0.71,5.98,-2.62,2.93,21.69,17.18,-24.56,3
-0.02,-0.71,0.71,2.87,-2.01,1.04,22.79,16.61,-24.84,3
-0.02,-0.72,0.72,3.36,-3.05,1.83,22.63,17.60,-24.30,3
-0.01,-0.70,0.71,1.53,-2.20,1.83,22.02,16.91,-24.99,3
-0.02,-0.71,0.72,5.74,-3.36,2.08,22.18,17.25,-25.26,3
-0.02,-0.70,0.72,4.82,-2.20,1.83,22.02,17.02,-24.76,3
-0.01,-0.71,0.71,4.64,-2.32,2.56,22.16,17.36,-25.09,3
-0.02,-0.70,0.72,4.70,-3.17,1.95,22.49,16.87,-24.52,3
-0.01,-0.71,0.72,3.36,-1.83,1.89,22.24,16.55,-24.02,3
-0.02,-0.70,0.72,6.04,-2.99,2.38,22.08,16.32,-23.96,3
-0.02,-0.71,0.71,2.32,-1.83,0.24,22.17,16.53,-24.02,3
-0.02,-0.71,0.72,3.72,-3.36,2.38,22.40,16.98,-24.18,3
-0.02,-0.71,0.71,4.03,-2.01,1.46,22.44,16.70,-24.96,3
-0.01,-0.71,0.72,5.86,-2.26,1.89,22.35,17.43,-24.01,3
-0.01,-0.70,0.71,6.04,-2.62,2.14,22.72,17.41,-24.67,3
-0.01,-0.71,0.71,5.13,-1.40,1.95,22.19,17.18,-24.91,3
-0.01,-0.70,0.71,4.21,-1.71,1.59,22.16,17.09,-24.73,3
-0.02,-0.72,0.73,2.93,-1.46,0.85,22.07,16.99,-23.58,3
-0.01,-0.71,0.71,6.41,-3.30,2.26,22.41,17.02,-24.30,3
-0.01,-0.70,0.72,3.97,-2.99,2.01,21.92,17.64,-22.89,3
-0.02,-0.72,0.72,6.53,-3.05,0.55,21.79,17.11,-24.24,3
-0.00,-0.71,0.71,0.98,-1.04,1.34,22.40,17.05,-25.96,3
-0.01,-0.71,0.71,4.94,-3.42,2.08,22.17,17.63,-24.68,3
-0.01,-0.70,0.71,2.44,-1.95,0.61,22.84,16.98,-23.34,3
-0.01,-0.70,0.72,5.13,-2.32,1.71,22.50,17.29,-23.85,3
-0.02,-0.71,0.72,3.72,-3.23,1.28,22.45,16.74,-23.13,3
-0.01,-0.70,0.72,3.72,-2.62,0.98,22.40,17.38,-23.08,3
-0.01,-0.71,0.71,4.94,-2.81,2.14,22.14,16.72,-23.99,3
-0.01,-0.71,0.71,2.38,-1.89,0.37,22.30,16.52,-24.24,3
-0.01,-0.71,0.72,5.80,-2.56,2.26,21.69,16.88,-24.39,3
-0.01,-0.70,0.71,3.17,-1.59,0.85,21.57,17.30,-24.11,3
-0.01,-0.71,0.72,3.97,-2.20,1.65,21.85,16.94,-23.45,3
-0.02,-0.71,0.72,3.05,-2.75,1.40,22.12,17.33,-23.65,3
-0.01,-0.71,0.72,2.26,-3.36,2.38,21.96,17.04,-23.69,3
-0.01,-0.70,0.71,2.93,-4.39,2.69,21.85,16.78,-23.02,3
-0.01,-0.70,0.73,-3.17,-2.93,3.30,21.90,16.67,-23.97,3
-0.01,-0.71,0.73,-9.03,-1.95,2.56,22.13,16.44,-24.62,3
-0.01,-0.64,0.75,-20.87,-2.93,8.12,22.34,16.52,-26.27,3
-0.01,-0.66,0.75,2.99,-4.09,2.93,22.23,16.32,-25.99,3
-0.01,-0.67,0.76,-3.30,-2.20,2.14,21.92,16.42,-25.43,3
-0.00,-0.65,0.76,-3.91,-3.42,2.08,22.45,16.65,-26.39,3
-0.01,-0.66,0.78,2.50,-3.72,1.40,21.91,16.94,-25.49,3
-0.01,-0.64,0.76,-1.77,-3.11,1.71,22.11,16.15,-27.04,3
-0.01,-0.65,0.78,-0.06,-3.66,0.79,22.19,15.99,-26.48,3
-0.01,-0.64,0.77,1.10,-3.05,1.10,22.11,15.91,-27.06,3
-0.01,-0.64,0.78,5.92,-3.78,0.43,22.39,16.02,-27.26,3
-0.00,-0.64,0.78,5.55,-2.32,0.24,22.02,16.09,-26.88,3
-0.01,-0.64,0.77,6.53,-2.56,0.24,22.28,16.02,-26.61,3
-0.01,-0.65,0.78,10.38,-2.62,1.22,22.25,15.69,-26.59,3
-0.00,-0.65,0.75,11.96,-0.61,1.65,22.27,16.09,-28.04,3
0.01,-0.66,0.76,21.67,-0.85,1.71,22.30,16.46,-26.01,3
-0.00,-0.66,0.72,18.37,4.33,5.07,21.94,16.21,-24.76,3
0.00,-0.69,0.74,17.52,-1.40,-1.89,22.49,16.37,-24.85,3
0.01,-0.71,0.74,27.77,0.12,-0.49,22.56,16.77,-23.44,3
0.01,-0.73,0.69,40.59,0.61,-2.99,22.34,16.87,-23.46,3
-0.00,-0.78,0.69,36.80,-1.34,-2.62,22.19,17.05,-23.05,3
0.01,-0.76,0.65,34.73,1.53,2.38,21.86,18.12,-22.66,3
0.02,-0.75,0.63,48.16,-0.73,-0.12,21.85,18.36,-20.90,3
0.02,-0.81,0.59,44.80,4.52,2.81,21.53,18.48,-20.39,3
0.02,-0.83,0.55,43.46,1.65,2.93,21.73,18.88,-19.07,3
0.01,-0.88,0.52,41.08,0.92,0.06,21.59,19.53,-17.55,3
0.03,-0.87,0.50,27.65,0.06,0.24,21.84,19.35,-17.25,3
0.02,-0.86,0.49,37.90,-2.62,0.73,21.02,20.18,-16.44,3
0.02,-0.88,0.46,38.45,-2.26,-2.08,21.23,20.01,-15.39,3
0.02,-0.95,0.40,44.37,-3.48,-2.01,21.23,20.09,-14.66,3
0.02,-0.94,0.37,39.67,-4.70,2.62,21.15,19.75,-12.43,3
0.02,-0.97,0.34,55.60,-3.54,-2.56,20.81,19.97,-11.39,3
0.02,-0.96,0.28,53.71,-4.52,2.87,20.46,20.12,-10.85,3
0.03,-0.98,0.28,69.03,-4.52,-2.44,20.72,19.60,-8.85,3
0.02,-1.00,0.15,81.36,-5.37,2.50,20.43,18.98,-6.32,3
0.02,-1.00,0.05,103.58,-3.78,-8.00,20.65,18.01,-3.43,3
0.00,-1.05,-0.04,71.47,-4.21,-7.02,21.02,17.42,-1.64,3
0.01,-1.02,-0.08,65.92,-4.33,-1.46,20.89,16.39,0.15,3
-0.00,-1.00,-0.14,58.90,-2.44,-5.31,20.61,15.28,0.85,3
-0.00,-1.01,-0.21,54.75,-2.81,-3.78,20.56,14.21,2.12,3
-0.01,-0.98,-0.25,49.74,-3.23,-4.70,20.69,13.22,3.75,3
-0.01,-1.00,-0.29,40.28,-2.75,-3.60,20.87,11.96,4.59,3
-0.01,-0.96,-0.32,44.43,-5.19,-3.05,20.90,11.35,4.68,3
-0.03,-0.96,-0.36,40.65,-4.70,-4.39,20.47,10.88,6.35,3
-0.03,-0.94,-0.39,29.42,-4.21,0.00,20.20,10.42,6.95,3
-0.03,-0.93,-0.41,46.63,-2.69,-7.08,20.32,9.56,7.59,3
-0.04,-0.93,-0.47,43.27,-3.66,-3.60,20.50,8.80,8.34,3
-0.03,-0.88,-0.49,38.70,-4.27,-3.66,20.65,8.84,8.79,3
-0.04,-0.87,-0.51,54.69,-6.65,-4.39,20.28,7.36,8.62,3
-0.05,-0.84,-0.56,27.22,-3.72,0.55,20.13,6.79,9.96,3
-0.04,-0.83,-0.58,21.79,-3.85,1.28,20.47,5.94,11.16,3
-0.04,-0.82,-0.59,30.70,-3.72,0.49,20.30,5.59,9.83,3
-0.04,-0.80,-0.62,26.00,-2.32,0.18,20.68,4.55,10.47,3
-0.04,-0.80,-0.64,9.83,-3.54,1.65,20.23,4.70,10.85,3
-0.04,-0.78,-0.63,12.39,-0.92,0.61,20.86,4.49,11.79,3
-0.04,-0.80,-0.65,7.57,-3.05,1.10,20.46,4.25,11.85,3
-0.04,-0.78,-0.63,6.04,-2.99,0.92,20.37,3.80,10.73,3
-0.04,-0.79,-0.66,9.09,-3.17,0.55,20.45,4.05,11.12,3
-0.04,-0.78,-0.63,0.49,-4.70,2.20,20.32,3.55,10.72,3
-0.04,-0.78,-0.64,1.34,-4.15,1.65,20.54,4.55,10.51,3
-0.03,-0.79,-0.63,-0.49,-4.94,2.44,20.97,3.81,11.68,3
-0.03,-0.79,-0.63,6.41,-3.11,2.08,20.98,4.71,11.65,3
-0.03,-0.79,-0.64,4.15,-4.09,0.98,20.62,4.66,10.97,3
-0.03,-0.79,-0.63,7.26,-1.83,1.34,20.36,4.04,10.91,3
-0.03,-0.78,-0.64,6.41,-2.08,1.10,20.17,4.24,11.29,3
-0.03,-0.79,-0.65,2.99,-1.40,0.85,20.28,4.25,12.52,3
-0.03,-0.78,-0.63,3.30,-3.60,1.04,20.37,3.97,10.97,3
-0.03,-0.79,-0.64,5.13,-1.65,1.28,20.51,4.19,10.78,3
-0.03,-0.79,-0.64,6.29,-2.87,1.28,20.17,4.31,10.44,3
-0.04,-0.79,-0.65,4.52,-1.83,0.61,20.81,4.28,11.43,3
-0.04,-0.78,-0.64,3.97,-2.69,1.04,20.72,3.82,10.08,3
-0.04,-0.79,-0.64,6.41,-2.69,1.04,20.62,3.86,10.82,3
-0.04,-0.79,-0.64,3.60,-2.08,1.53,20.34,3.87,11.71,3
-0.03,-0.79,-0.64,6.04,-2.99,0.73,20.31,3.50,11.30,3
-0.04,-0.79,-0.64,2.87,-2.32,0.85,20.26,4.06,10.55,3
-0.03,-0.79,-0.64,1.34,-2.69,1.83,20.08,4.52,11.49,3
-0.04,-0.78,-0.63,4.70,-1.71,1.77,20.45,4.75,10.45,3
-0.04,-0.79,-0.64,4.70,-3.17,0.49,19.84,4.28,11.46,3
-0.03,-0.78,-0.64,5.25,-3.17,1.65,20.51,3.88,11.36,3
-0.04,-0.80,-0.64,3.42,-2.62,0.00,20.03,4.24,12.08,3
-0.04,-0.79,-0.64,4.46,-3.05,1.34,19.84,4.11,11.06,3
-0.04,-0.79,-0.64,2.87,-2.32,1.34,20.36,4.10,10.42,3
-0.04,-0.79,-0.64,5.25,-2.93,0.79,20.21,4.31,11.10,3
-0.03,-0.78,-0.63,2.32,-3.17,2.44,20.12,4.25,10.16,3
-0.04,-0.79,-0.64,5.25,-2.32,0.61,20.24,3.91,11.38,3
-0.04,-0.79,-0.64,2.56,-1.95,0.55,19.54,4.10,11.66,3
-0.04,-0.79,-0.64,5.74,-3.23,0.61,19.90,3.74,11.49,3
-0.04,-0.78,-0.63,4.70,-3.36,1.40,19.78,4.72,11.52,3
-0.03,-0.79,-0.64,3.11,-4.03,1.28,19.85,4.11,10.83,3
-0.04,-0.79,-0.63,4.39,-2.08,0.98,19.79,3.64,11.34,3
-0.04,-0.79,-0.64,3.48,-2.62,0.98,19.71,4.74,10.45,3
-0.04,-0.79,-0.63,2.08,-3.48,1.22,20.08,4.94,10.33,3
-0.04,-0.79,-0.63,2.87,-3.23,1.83,19.49,4.79,10.06,3
-0.04,-0.79,-0.64,4.21,-3.36,1.22,19.95,4.64,10.78,3
-0.03,-0.79,-0.63,3.42,-4.15,1.40,20.15,5.55,10.25,3
-0.03,-0.79,-0.63,5.74,-3.05,-0.37,19.76,4.42,10.85,3
-0.04,-0.80,-0.63,2.38,-3.05,1.34,20.30,4.57,11.00,3
-0.04,-0.79,-0.64,3.78,-1.95,1.10,19.84,4.52,11.13,3
-0.03,-0.79,-0.64,4.70,-3.72,1.71,19.96,4.75,11.41,3
-0.03,-0.79,-0.63,2.50,-3.23,1.46,20.12,4.69,11.01,3
-0.03,-0.79,-0.63,4.82,-3.60,1.22,20.03,4.58,11.79,3
-0.04,-0.79,-0.63,2.93,-3.30,1.65,20.20,5.21,11.47,3
-0.03,-0.80,-0.62,2.87,-4.70,1.22,20.01,4.71,11.21,3
-0.03,-0.79,-0.63,2.14,-3.42,1.40,19.95,4.32,11.60,3
-0.03,-0.80,-0.63,3.05,-2.69,0.67,20.12,4.85,11.47,3
-0.03,-0.79,-0.63,3.91,-2.93,1.46,19.96,5.19,10.96,3
-0.03,-0.80,-0.63,3.66,-2.44,0.61,20.07,5.20,10.77,3
-0.03,-0.80,-0.63,3.30,-2.62,1.10,20.28,4.85,11.18,3
-0.03,-0.80,-0.62,2.81,-3.11,1.10,20.69,5.22,9.42,3
-0.03,-0.80,-0.63,2.56,-2.75,1.34,20.34,4.86,11.30,3
-0.03,-0.79,-0.64,0.61,-4.46,1.34,20.17,5.15,11.22,3
-0.03,-0.80,-0.63,1.10,-3.97,2.01,20.29,5.20,10.33,3
-0.02,-0.81,-0.61,0.37,-3.42,0.67,20.85,6.19,9.91,3
-0.03,-0.81,-0.61,-1.04,-2.75,0.67,20.46,5.14,10.02,3
-0.03,-0.81,-0.61,1.04,-2.62,0.37,20.51,5.75,10.78,3
-0.03,-0.82,-0.61,-0.37,-5.07,1.04,20.45,5.85,10.78,3
-0.03,-0.82,-0.60,-0.67,-2.50,0.37,19.54,6.13,10.03,3
-0.03,-0.82,-0.60,-7.14,-3.11,1.95,20.36,5.58,10.21,3
-0.03,-0.83,-0.59,-16.48,-0.98,3.36,20.58,5.76,9.85,3
-0.03,-0.85,-0.56,-17.64,-2.01,3.42,20.78,5.85,9.66,3
-0.03,-0.86,-0.54,-34.91,1.71,4.33,21.04,7.21,9.22,3
-0.02,-0.88,-0.49,-36.93,0.61,4.27,20.89,8.20,8.36,3
-0.03,-0.91,-0.46,-40.22,-0.73,5.92,21.22,8.80,7.89,3
-0.02,-0.93,-0.41,-44.13,1.89,4.76,20.96,10.36,6.76,3
-0.02,-0.94,-0.36,-40.16,1.04,2.99,21.02,11.49,5.18,3
-0.02,-0.95,-0.32,-42.66,-0.12,5.37,21.14,11.91,4.52,3
-0.02,-0.96,-0.29,-7.20,-2.75,2.62,21.02,13.04,4.82,3
-0.02,-0.98,-0.27,-36.19,-0.31,6.23,20.91,12.90,4.30,3
-0.02,-0.97,-0.24,-25.27,-0.73,2.81,20.92,13.49,3.63,3
-0.02,-1.00,-0.23,-2.81,-3.48,2.93,21.02,14.39,2.45,3
-0.02,-0.99,-0.22,-4.46,-3.42,3.05,21.13,14.67,2.58,3
-0.01,-1.01,-0.20,-15.01,-2.93,3.78,21.42,14.87,2.47,3
-0.01,-0.99,-0.19,-9.03,-2.56,4.21,21.73,14.59,2.09,3
-0.01,-1.00,-0.16,-20.87,-1.95,5.31,21.55,14.49,1.14,3
0.01,-1.05,-0.14,-20.08,-2.81,6.10,21.59,15.03,0.98,3
0.00,-1.00,-0.12,-3.30,-3.91,3.85,21.31,15.78,0.17,3
0.00,-1.02,-0.09,-43.52,-0.12,9.28,21.83,15.36,-0.10,3
0.02,-1.01,-0.04,-27.47,-2.50,6.35,21.94,15.58,-1.46,3
0.01,-1.02,-0.03,-4.76,-3.72,5.31,21.48,16.78,-1.05,3
0.02,-1.05,-0.03,-9.46,-3.42,4.46,21.80,16.88,-2.19,3
0.02,-1.02,0.00,-13.06,-2.38,4.94,21.87,17.04,-2.32,3
0.02,-1.02,0.03,-21.06,-3.05,8.48,21.83,17.31,-3.38,3
0.03,-1.02,0.04,-27.95,-2.69,5.92,22.24,18.57,-3.60,3
0.03,-1.01,0.10,-13.73,-3.66,3.23,22.53,18.20,-4.91,3
0.02,-1.03,0.09,-22.89,-0.92,2.62,22.07,18.40,-4.64,3
0.04,-1.00,0.15,-26.67,-2.08,2.50,22.71,18.07,-6.14,3
0.04,-1.00,0.18,-14.22,-3.91,5.62,22.46,18.84,-6.77,3
0.04,-0.98,0.23,-50.66,-2.62,5.62,22.62,18.99,-7.52,3
0.05,-0.98,0.26,-25.76,-1.16,4.46,23.00,18.87,-9.25,3
0.04,-0.97,0.26,-11.35,-3.91,3.48,22.63,19.86,-9.53,3
0.05,-0.99,0.28,-17.46,-2.38,2.62,22.96,19.12,-9.44,3
0.05,-0.95,0.31,-14.95,-3.17,3.42,22.85,18.63,-9.91,3
0.05,-0.98,0.32,-5.92,-2.32,2.32,22.60,19.09,-10.03,3
0.05,-0.97,0.33,-26.73,-2.44,3.54,22.81,18.96,-11.71,3
0.06,-0.93,0.36,-8.12,-3.42,2.08,23.24,19.02,-12.82,3
0.06,-0.95,0.37,-2.99,-2.01,3.23,22.88,19.21,-13.04,3
0.04,-0.93,0.37,0.73,-3.72,1.59,22.95,19.65,-12.34,3
0.05,-0.95,0.38,-4.03,-3.17,0.31,22.78,19.04,-11.45,3
0.05,-0.94,0.39,-15.20,-3.60,1.89,22.91,19.30,-12.39,3
0.05,-0.91,0.42,-14.40,-3.72,0.73,22.77,19.06,-13.60,3
0.05,-0.92,0.42,-3.11,-1.40,3.60,23.16,19.29,-14.10,3
0.05,-0.92,0.44,-27.89,-2.56,2.81,23.06,19.10,-15.38,3
0.05,-0.89,0.46,-10.31,-3.97,-0.43,23.32,19.12,-15.08,3
0.04,-0.93,0.47,-38.88,-1.95,2.50,23.27,19.12,-15.41,3
0.05,-0.85,0.50,-27.10,-4.33,1.71,23.35,18.21,-17.32,3
0.05,-0.87,0.52,3.48,-3.42,1.46,23.33,18.12,-16.91,3
0.05,-0.88,0.51,-0.24,-1.77,5.13,23.25,18.54,-16.69,3
0.05,-0.86,0.52,-9.58,-3.66,-0.55,23.21,18.70,-17.96,3
0.05,-0.86,0.52,5.00,-3.30,1.83,23.35,18.84,-17.82,3
0.04,-0.84,0.54,-15.38,-4.70,0.31,23.40,18.53,-17.91,3
0.05,-0.85,0.56,-10.44,-2.32,0.61,23.12,18.40,-17.49,3
0.05,-0.83,0.55,-0.12,-3.23,1.10,22.81,18.80,-17.99,3
0.04,-0.84,0.57,-13.18,-2.99,3.05,23.40,18.30,-18.04,3
0.05,-0.81,0.58,-20.08,-3.17,1.16,23.45,18.04,-19.02,3
0.05,-0.81,0.60,-2.20,-1.83,4.82,23.22,17.93,-20.52,3
0.05,-0.81,0.60,8.48,-3.36,2.01,23.44,18.24,-19.21,3
0.05,-0.82,0.60,-8.12,-2.56,1.22,23.45,18.62,-20.95,3
0.05,-0.80,0.61,1.95,-3.23,4.15,23.24,18.49,-20.80,3
0.05,-0.79,0.62,-11.78,-1.22,2.81,23.16,18.64,-21.51,3
0.05,-0.79,0.63,-0.67,-4.27,-0.24,23.54,18.26,-19.86,3
0.05,-0.79,0.62,0.85,-1.89,3.30,23.82,17.92,-20.81,3
0.05,-0.78,0.62,-6.10,-3.17,2.01,23.44,17.76,-21.33,3
0.06,-0.78,0.63,0.98,-3.11,0.98,23.72,18.13,-20.94,3
0.06,-0.77,0.64,1.59,-1.65,2.26,23.44,17.59,-22.09,3
0.05,-0.78,0.63,6.23,-2.56,2.87,23.17,18.01,-20.75,3
0.06,-0.78,0.63,12.94,-1.71,1.89,23.32,18.20,-21.37,3
0.06,-0.78,0.63,10.74,-2.44,1.95,23.11,17.59,-20.46,3
0.05,-0.79,0.62,4.46,-2.26,1.95,22.99,17.77,-20.53,3
0.06,-0.80,0.62,12.57,-2.62,1.16,23.25,17.94,-20.57,3
0.06,-0.79,0.61,4.82,-1.83,3.05,23.58,17.91,-20.17,3
0.06,-0.79,0.61,13.24,-2.08,1.53,23.28,18.26,-20.48,3
0.06,-0.80,0.61,0.79,-2.38,1.65,23.93,18.27,-20.57,3
0.06,-0.80,0.61,11.72,-3.23,2.14,23.23,18.31,-20.30,3
0.06,-0.80,0.61,2.87,-3.05,0.85,23.03,18.53,-20.41,3
0.06,-0.80,0.60,10.99,-2.81,0.55,23.55,18.20,-20.69,3
0.06,-0.81,0.60,7.39,-3.97,2.08,23.06,18.15,-19.91,3
0.06,-0.82,0.61,5.13,-4.33,1.28,23.21,18.35,-19.47,3
0.06,-0.81,0.59,16.48,-3.97,0.61,22.83,18.21,-20.17,3
0.06,-0.82,0.59,2.08,-4.27,-1.53,22.92,19.12,-19.19,3
0.08,-0.94,0.58,-20.08,1.59,12.02,22.56,18.82,-20.29,3
0.07,-0.81,0.61,9.95,-0.67,4.94,23.55,18.55,-20.98,3
0.08,-0.81,0.62,-8.06,-2.44,0.79,23.28,18.58,-20.29,3
0.07,-0.79,0.62,4.39,-3.60,1.71,23.41,18.73,-21.15,3
0.08,-0.80,0.63,-6.90,-2.01,2.69,23.66,19.18,-20.40,3
0.07,-0.77,0.60,14.40,-3.11,1.40,23.17,18.27,-20.47,3
0.07,-0.78,0.62,-0.98,-2.26,1.46,23.85,18.97,-20.69,3
0.06,-0.79,0.58,22.03,-4.82,-2.44,23.03,18.79,-21.45,3
0.06,-0.77,0.58,14.10,-2.69,-0.31,23.56,18.26,-21.09,3
0.08,-0.83,0.60,27.65,-6.04,-4.33,23.35,18.66,-18.64,3
0.06,-0.80,0.55,23.13,-2.99,-0.18,23.44,18.58,-20.10,3
0.06,-0.83,0.56,23.74,-2.99,-1.22,22.97,19.17,-18.41,3
0.06,-0.89,0.53,34.67,-3.72,-3.42,22.99,18.96,-17.14,3
0.06,-0.85,0.50,29.30,-3.17,0.12,23.27,19.32,-18.04,3
0.05,-0.90,0.48,23.86,-1.04,-2.01,23.07,19.78,-16.33,3
0.06,-0.90,0.48,42.60,-3.78,-1.22,22.75,19.40,-15.98,3
0.05,-0.91,0.43,22.28,-2.75,0.00,23.00,19.54,-14.86,3
0.05,-0.90,0.44,11.41,-2.32,-0.24,23.01,19.27,-14.97,3
0.06,-0.93,0.42,43.88,0.49,-0.92,23.03,18.79,-14.20,3
0.04,-0.92,0.32,96.01,-5.43,-6.16,22.41,19.10,-11.83,3
0.04,-0.99,0.26,51.33,-4.33,-1.95,22.45,18.38,-10.55,3
0.05,-0.99,0.22,60.30,-5.68,-2.26,22.35,18.20,-8.42,3
0.04,-0.98,0.19,37.11,-5.19,-1.28,22.30,18.75,-7.85,3
0.04,-1.01,0.15,33.69,-5.00,-0.98,22.79,18.40,-6.12,3
0.04,-1.00,0.13,33.81,-6.29,-1.10,22.62,17.98,-5.41,3
0.03,-0.99,0.09,30.64,-4.58,-0.61,22.86,17.85,-5.33,3
0.03,-1.02,0.06,36.87,-4.88,-3.23,22.41,17.49,-4.20,3
0.02,-1.01,0.04,27.59,-5.00,-0.61,22.53,16.72,-3.43,3
0.02,-1.02,0.00,34.67,-4.64,-2.87,22.17,16.86,-2.58,3
0.03,-1.02,-0.01,21.67,-4.15,-0.85,22.38,16.48,-1.84,3
0.02,-1.03,-0.03,17.15,-3.85,-0.12,22.36,16.15,-2.34,3
0.03,-1.01,-0.02,34.91,-3.30,-3.72,22.64,16.31,-2.66,3
0.01,-1.00,-0.10,17.94,-3.36,0.31,22.38,15.87,-1.76,3
0.01,-1.01,-0.08,32.04,-2.44,-1.59,21.64,16.04,-1.09,3
0.00,-1.00,-0.16,31.80,-2.26,-0.85,22.23,15.33,0.46,3
0.01,-1.03,-0.14,28.26,-1.59,-1.28,22.03,14.54,0.51,3
-0.00,-1.00,-0.21,49.07,-0.73,-2.50,21.98,14.22,0.93,3
0.01,-1.00,-0.20,29.91,-3.78,-2.87,21.75,13.81,2.39,3
-0.01,-0.98,-0.24,38.02,-4.58,-1.71,22.12,13.17,3.31,3
-0.00,-0.99,-0.28,33.81,-4.58,-2.01,22.14,12.70,3.59,3
-0.01,-0.94,-0.28,30.46,-5.13,0.18,22.25,11.88,4.39,3
-0.00,-0.96,-0.33,26.06,-5.00,-2.14,21.89,11.33,5.64,3
-0.01,-0.96,-0.35,13.85,-4.52,3.36,21.83,11.60,6.08,3
-0.00,-0.92,-0.37,54.50,-1.77,-5.68,21.69,10.47,6.79,3
-0.01,-0.97,-0.39,22.09,-5.86,0.00,22.30,9.90,6.85,3
-0.02,-0.87,-0.41,46.75,-3.42,-4.76,21.57,9.62,6.32,3
-0.02,-0.94,-0.47,29.36,2.20,-2.38,21.69,8.84,7.23,3
-0.02,-0.90,-0.47,31.86,-7.02,-3.42,21.47,8.41,7.45,3
-0.03,-0.85,-0.48,40.28,-2.14,-1.53,21.97,6.97,7.52,3
-0.01,-0.89,-0.53,19.78,1.71,-0.85,21.97,6.74,8.75,3
-0.03,-0.84,-0.58,28.75,0.18,0.85,21.78,5.59,9.33,3
-0.03,-0.86,-0.58,26.25,-2.08,-1.04,21.48,5.97,9.16,3
-0.04,-0.84,-0.59,29.30,-0.18,0.92,21.37,4.96,9.40,3
-0.03,-0.79,-0.61,29.79,-2.69,-0.98,21.47,4.10,9.50,3
-0.04,-0.81,-0.62,9.64,-3.05,2.50,21.52,3.64,10.31,3
-0.03,-0.78,-0.62,16.17,-4.39,0.67,21.15,3.69,10.86,3
-0.04,-0.82,-0.64,4.33,-3.36,2.44,21.36,3.76,10.90,3
-0.04,-0.78,-0.63,5.19,-2.50,1.40,21.59,3.39,9.97,3
-0.04,-0.78,-0.62,-0.31,-4.21,3.48,21.78,3.81,10.67,3
-0.04,-0.80,-0.63,7.81,-1.53,0.92,21.50,3.04,10.75,3
-0.04,-0.79,-0.63,2.50,-3.54,2.87,21.44,3.70,10.14,3
-0.02,-0.80,-0.62,13.06,-1.71,-1.46,21.34,3.34,11.11,3
-0.04,-0.80,-0.64,2.14,-2.56,2.20,21.79,3.14,10.03,3
-0.03,-0.79,-0.62,5.55,-3.30,0.61,21.40,3.85,10.64,3
-0.04,-0.81,-0.64,1.10,-2.99,3.17,21.30,3.25,10.96,3
-0.03,-0.80,-0.64,7.08,-2.62,-0.12,21.57,4.24,10.69,3
-0.04,-0.79,-0.64,3.91,-2.81,3.48,21.20,3.10,10.33,3
-0.03,-0.79,-0.63,5.19,-2.69,-0.24,21.69,3.41,10.44,3
-0.04,-0.78,-0.64,4.58,-3.60,3.78,21.37,3.20,10.45,3
-0.04,-0.78,-0.63,6.35,-2.20,-0.98,21.28,3.66,10.80,3
-0.04,-0.78,-0.64,3.85,-3.17,3.36,21.40,3.42,10.29,3
-0.03,-0.78,-0.64,4.76,-2.69,0.49,21.53,2.71,9.79,3
-0.03,-0.80,-0.64,3.85,-3.48,2.32,21.57,3.50,10.79,3
-0.04,-0.79,-0.63,3.72,-3.30,0.67,21.48,3.59,10.84,3
-0.03,-0.79,-0.64,5.80,-2.20,0.79,21.72,3.21,11.02,3
-0.03,-0.80,-0.65,5.98,-2.99,1.40,21.75,3.20,10.85,3
-0.04,-0.76,-0.64,5.07,-2.69,1.28,21.69,3.65,10.86,3
-0.04,-0.79,-0.66,3.23,-3.05,2.44,21.31,2.84,10.58,3
-0.03,-0.77,-0.64,2.81,-2.75,0.31,20.95,3.32,10.78,3
-0.04,-0.79,-0.65,4.21,-2.56,1.28,21.22,3.88,11.05,3
-0.04,-0.78,-0.64,2.99,-3.66,2.08,21.40,3.54,10.84,3
-0.04,-0.79,-0.63,4.39,-3.54,1.10,21.41,3.11,11.34,3
-0.04,-0.76,-0.64,5.07,-2.69,1.77,20.64,3.63,10.55,3
-0.03,-0.80,-0.65,4.33,-3.30,-0.24,21.90,3.75,10.97,3
-0.04,-0.76,-0.63,2.26,-3.48,3.05,21.74,2.71,11.79,3
-0.04,-0.80,-0.66,2.56,-2.69,0.37,21.69,3.16,10.80,3
-0.03,-0.78,-0.63,5.37,-3.54,1.77,21.62,3.59,11.23,3
-0.04,-0.79,-0.66,4.21,-2.14,0.73,21.59,3.41,12.04,3
-0.04,-0.78,-0.64,2.93,-3.91,2.69,21.61,3.36,11.78,3
-0.03,-0.80,-0.64,4.76,-2.99,0.43,21.79,3.52,10.42,3
-0.05,-0.75,-0.64,4.94,-3.17,2.08,21.11,3.14,11.56,3
-0.04,-0.81,-0.65,2.69,-3.42,1.40,21.30,2.75,10.96,3
-0.03,-0.77,-0.63,2.87,-3.23,0.98,22.07,3.19,11.39,3
-0.04,-0.78,-0.64,3.60,-3.05,1.22,21.53,3.31,10.94,3
-0.04,-0.81,-0.65,3.42,-2.56,0.98,21.14,3.92,10.88,3
-0.04,-0.78,-0.64,2.14,-2.99,2.14,21.67,3.53,10.57,3
-0.03,-0.81,-0.65,4.15,-3.30,0.55,21.17,3.94,10.77,3
-0.04,-0.79,-0.63,0.61,-2.62,1.71,21.25,3.43,10.53,3
-0.03,-0.81,-0.64,1.46,-3.91,0.79,21.22,3.56,10.66,3
-0.03,-0.80,-0.62,-1.89,-3.66,1.65,22.06,3.27,10.79,3
-0.03,-0.79,-0.63,1.46,-3.05,1.16,21.53,3.59,10.38,3
-0.03,-0.82,-0.63,-3.91,-2.87,2.14,21.45,4.65,9.63,3
-0.03,-0.79,-0.60,0.00,-3.54,1.40,21.80,4.44,9.80,3
-0.03,-0.83,-0.62,-1.10,-2.08,2.26,21.62,4.14,9.70,3
-0.02,-0.83,-0.61,-0.18,-3.85,1.10,22.07,4.26,9.68,3
-0.03,-0.81,-0.60,0.37,-2.26,1.40,21.29,5.33,10.47,3
-0.03,-0.85,-0.60,2.62,-2.20,0.61,21.29,4.80,10.40,3
-0.03,-0.81,-0.60,-3.05,-2.69,2.87,21.72,4.98,10.17,3
-0.02,-0.84,-0.60,2.93,-2.01,0.85,21.48,5.11,10.07,3
-0.03,-0.82,-0.59,-6.41,-2.87,3.17,21.34,5.58,11.07,3
-0.02,-0.85,-0.57,-6.04,-3.30,2.99,22.06,5.79,9.47,3
-0.03,-0.85,-0.56,-10.56,-3.60,1.83,21.45,6.08,9.28,3
-0.02,-0.86,-0.55,-1.34,-2.32,3.17,21.53,5.96,9.61,3
-0.03,-0.84,-0.56,-7.57,-4.09,3.48,21.74,6.32,9.16,3
-0.01,-0.88,-0.50,-5.13,-5.07,2.50,21.62,6.79,8.15,3
-0.02,-0.86,-0.51,-1.04,-4.09,2.26,21.50,7.19,7.90,3
-0.02,-0.88,-0.53,-5.86,-3.30,2.20,21.92,7.62,9.20,3
-0.01,-0.89,-0.50,-11.11,-4.21,3.54,22.05,7.28,8.26,3
-0.01,-0.88,-0.50,-10.44,-3.66,5.43,21.64,8.14,8.22,3
-0.01,-0.97,-0.49,-19.53,-2.81,4.52,21.46,7.86,7.48,3
0.00,-0.89,-0.43,-23.44,-2.99,6.71,21.95,8.87,8.19,3
0.01,-0.93,-0.43,-2.87,-4.15,1.77,22.27,9.17,6.88,3
-0.01,-0.94,-0.44,-34.97,-4.03,11.72,21.85,9.99,7.24,3
0.01,-0.95,-0.38,-9.95,-3.97,4.03,22.27,10.16,5.63,3
0.01,-0.98,-0.40,-6.04,-5.43,1.53,22.45,10.90,5.08,3
0.02,-0.92,-0.30,-42.24,-5.31,11.72,22.53,11.77,5.08,3
0.03,-0.97,-0.30,-8.06,-4.82,2.93,22.62,11.61,4.69,3
0.03,-0.95,-0.30,-13.61,-5.49,4.94,22.68,12.10,4.83,3
0.02,-1.00,-0.27,-29.42,-4.27,7.26,23.10,12.28,2.98,3
0.04,-0.99,-0.27,-7.45,-5.43,3.72,23.36,12.59,2.86,3
0.04,-1.01,-0.22,-40.53,-5.25,11.72,23.22,13.98,2.36,3
0.06,-1.02,-0.19,-4.15,-3.23,1.40,23.62,14.22,2.54,3
0.05,-0.98,-0.19,-22.89,-3.66,8.91,23.69,13.62,0.98,3
0.06,-1.02,-0.16,-20.20,-3.78,6.53,23.36,14.21,0.73,3
0.06,-0.99,-0.12,-18.92,-5.13,7.39,23.46,14.75,-0.39,3
0.07,-1.05,-0.11,-13.00,-3.23,4.39,24.15,15.27,-1.38,3
0.08,-0.98,-0.08,-13.92,-5.19,4.64,23.60,15.44,-0.72,3
0.08,-1.01,-0.05,-30.58,-2.99,9.03,23.83,15.81,-0.32,3
0.09,-1.00,-0.03,-9.70,-4.46,4.46,24.19,16.30,-2.73,3
0.09,-1.04,-0.02,-9.28,-4.52,4.21,24.10,16.22,-1.46,3
0.09,-0.98,0.01,-18.13,-4.27,7.57,24.72,16.48,-3.34,3
0.10,-1.03,0.01,2.08,-3.85,2.44,24.78,16.69,-2.10,3
0.10,-0.98,0.04,-24.11,-3.17,7.69,24.90,17.15,-2.66,3
0.09,-1.01,0.05,-11.54,-2.38,4.82,24.49,17.36,-4.83,3
0.10,-1.01,0.06,-7.08,-6.10,-2.32,24.72,17.08,-4.49,3
0.10,-0.99,0.08,-9.83,-7.75,-0.79,24.51,17.24,-4.94,3
0.09,-0.98,0.09,-12.63,-8.48,-9.28,24.65,17.94,-5.41,3
0.09,-1.00,0.09,-12.15,-5.92,-5.31,24.46,17.66,-5.52,3
0.07,-0.98,0.13,-33.33,-11.41,-9.83,24.02,17.88,-6.63,3
0.05,-1.00,0.17,-12.33,-10.50,-11.90,23.75,18.23,-6.91,3
0.05,-1.00,0.18,-11.17,-11.90,-13.24,23.68,18.58,-7.80,3
0.01,-0.99,0.20,-4.52,-9.83,-11.60,23.56,18.77,-9.06,3
0.01,-1.00,0.19,23.01,-13.49,-15.01,22.66,18.53,-7.95,3
0.00,-1.02,0.21,14.34,-10.07,-11.66,22.45,18.99,-8.11,3
-0.02,-0.98,0.17,9.89,-9.95,-14.40,21.36,19.07,-7.85,3
-0.04,-1.03,0.20,-0.98,-15.56,-16.85,21.51,18.31,-7.51,3
-0.06,-0.98,0.19,-8.91,-7.63,-9.77,21.13,19.13,-8.11,3
-0.07,-1.00,0.20,9.03,-13.06,-12.70,20.72,18.40,-8.97,3
-0.09,-0.98,0.24,-20.87,-9.83,-7.20,20.45,19.18,-8.63,3
-0.09,-0.97,0.24,-14.16,-7.51,-10.38,20.26,19.03,-11.25,3
-0.11,-0.95,0.26,-25.82,-10.19,-8.36,19.35,20.17,-10.41,3
-0.13,-0.98,0.29,-5.98,-13.06,-13.67,19.25,19.68,-11.60,3
-0.15,-0.94,0.27,4.52,-13.12,-17.21,19.13,19.63,-11.46,3
-0.17,-0.98,0.31,-16.17,-5.68,-5.86,18.69,19.47,-12.65,3
-0.17,-0.94,0.30,19.96,-11.47,-8.79,18.93,20.20,-10.78,3
-0.18,-0.94,0.29,-1.10,-10.44,-7.63,18.48,20.23,-11.36,3
-0.21,-0.97,0.32,-0.31,-7.63,-8.30,18.23,19.60,-12.60,3
-0.19,-0.93,0.30,1.77,-6.04,-6.47,17.48,19.53,-12.35,3
-0.23,-0.97,0.33,-10.62,-6.90,-7.51,17.43,19.59,-12.13,3
-0.21,-0.92,0.33,-4.52,-8.48,-7.51,17.53,19.84,-12.39,3
-0.24,-0.93,0.33,3.23,-8.06,-8.85,16.54,19.84,-12.88,3
-0.26,-0.94,0.33,-20.39,-13.06,-10.01,16.48,19.62,-13.45,3
-0.26,-0.91,0.35,27.04,-14.59,-2.93,16.05,19.96,-13.88,3
-0.27,-0.92,0.32,12.82,-13.49,0.73,16.38,19.90,-13.32,3
-0.29,-0.94,0.34,-7.39,-8.06,2.99,16.75,20.03,-12.73,3
-0.26,-0.90,0.32,-1.40,-13.61,1.04,16.38,19.85,-13.34,3
-0.28,-0.91,0.36,-13.24,-10.74,-0.98,16.60,20.12,-12.85,3
-0.27,-0.88,0.36,-13.24,-9.64,-0.67,16.27,19.74,-15.30,3
-0.29,-0.91,0.38,-15.75,-10.68,-3.11,16.31,20.36,-14.38,3
-0.29,-0.88,0.40,-16.17,-5.55,-1.34,15.73,19.93,-16.20,3
-0.30,-0.87,0.40,-3.54,-7.45,-0.98,16.08,19.85,-16.13,3
-0.30,-0.89,0.41,-7.26,-7.08,1.10,16.00,20.08,-15.76,3
-0.30,-0.86,0.40,-20.87,-5.68,0.37,15.73,20.06,-16.85,3
-0.32,-0.88,0.41,4.76,-6.96,-2.14,16.04,20.68,-15.98,3
-0.31,-0.86,0.40,-17.09,-4.46,-0.49,16.00,20.31,-17.29,3
-0.31,-0.85,0.42,3.23,-5.13,-1.71,15.09,20.46,-17.22,3
-0.32,-0.87,0.43,10.38,-6.16,0.79,15.12,20.06,-16.33,3
-0.32,-0.87,0.41,21.36,-6.10,1.65,15.72,19.47,-15.54,3
-0.31,-0.87,0.41,6.84,-5.19,-0.98,15.03,19.96,-14.76,3
-0.33,-0.87,0.41,4.52,-3.66,-0.49,15.19,20.04,-15.30,3
-0.32,-0.86,0.40,0.12,-4.09,-0.18,15.31,20.73,-15.55,3
-0.34,-0.88,0.42,5.92,-2.56,0.49,14.61,19.98,-15.80,3
-0.31,-0.85,0.40,-1.28,-2.87,-2.14,15.28,19.98,-16.82,3
-0.34,-0.88,0.43,8.42,-2.01,-1.89,15.67,19.97,-15.10,3
-0.33,-0.86,0.41,3.78,-2.69,-0.67,15.38,19.75,-15.84,3
-0.34,-0.87,0.40,5.07,-0.18,-0.85,14.97,19.60,-16.88,3
-0.33,-0.86,0.42,5.25,-0.43,-1.59,15.11,20.15,-16.21,3
-0.34,-0.87,0.41,8.18,-2.44,0.43,15.52,20.10,-16.08,3
-0.34,-0.86,0.41,6.90,-0.37,0.67,15.47,19.63,-15.97,3
-0.33,-0.85,0.40,7.14,-2.69,-2.81,15.01,19.63,-16.65,3
-0.34,-0.88,0.40,19.59,-2.81,-1.89,15.14,19.78,-16.28,3
-0.34,-0.85,0.39,2.87,-0.12,-0.61,14.89,19.47,-15.77,3
-0.34,-0.88,0.40,8.00,2.32,-4.03,14.90,20.03,-15.77,3
-0.34,-0.85,0.38,15.56,0.98,-1.46,14.99,19.60,-15.23,3
-0.36,-0.89,0.36,30.82,1.89,-10.62,14.64,19.70,-14.89,3
-0.37,-0.89,0.34,29.97,1.77,-6.35,14.70,19.93,-13.39,3
-0.35,-0.87,0.33,17.58,3.11,-3.17,14.44,19.74,-13.60,3
-0.36,-0.91,0.33,17.46,0.55,-2.62,14.50,19.69,-12.82,3
-0.37,-0.88,0.31,22.71,1.10,-2.62,14.56,19.24,-12.98,3
-0.37,-0.90,0.29,12.57,8.54,-6.23,14.28,19.15,-13.28,3
-0.37,-0.89,0.29,22.34,2.08,-4.09,13.99,19.12,-12.60,3
-0.38,-0.91,0.27,15.08,1.95,-2.44,13.56,18.69,-10.66,3
-0.39,-0.90,0.28,9.95,0.49,-2.01,13.38,19.07,-10.96,3
-0.37,-0.96,0.26,35.46,-7.14,8.67,13.62,18.90,-11.05,3
-0.32,-0.80,0.34,-6.04,-30.09,53.47,14.18,18.90,-10.75,3
-0.29,-0.87,0.26,-1.71,4.76,6.77,15.21,19.52,-10.71,3
-0.31,-0.92,0.25,7.39,-2.75,-1.22,14.99,19.69,-10.46,3
-0.35,-0.94,0.22,15.08,5.68,4.64,15.39,19.36,-10.38,3
-0.31,-0.89,0.19,9.58,-1.83,1.34,15.56,19.67,-9.83,3
-0.31,-0.96,0.29,5.31,-2.26,-0.92,15.58,19.73,-10.86,3
-0.33,-0.90,0.20,7.14,0.67,2.44,15.36,19.42,-11.71,3
-0.32,-0.97,0.26,-0.18,2.14,-2.87,14.58,19.29,-11.12,3
-0.32,-0.90,0.19,5.25,-1.04,3.30,14.81,19.08,-10.41,3
-0.33,-0.95,0.27,4.76,-4.03,-1.22,14.79,19.80,-10.69,3
-0.31,-0.94,0.26,-4.58,14.83,-0.98,14.38,19.30,-10.62,3
-0.31,-0.92,0.26,6.10,15.50,1.22,15.10,19.12,-10.27,3
-0.33,-0.94,0.23,5.13,21.06,0.61,15.10,19.19,-10.29,3
-0.31,-0.98,0.23,1.53,13.98,-3.48,14.36,19.85,-11.05,3
-0.29,-0.92,0.27,11.11,10.62,2.81,15.19,18.76,-11.25,3
-0.32,-0.92,0.28,11.66,11.78,-0.79,14.12,18.71,-10.28,3
-0.29,-0.92,0.26,17.52,16.30,2.26,14.62,18.95,-9.16,3
-0.29,-0.94,0.27,15.08,12.33,2.62,14.54,19.14,-9.75,3
-0.29,-0.93,0.25,13.37,13.92,-0.24,14.40,18.81,-9.58,3
-0.29,-0.96,0.26,13.98,13.12,0.73,14.34,18.69,-9.14,3
-0.28,-0.93,0.24,8.79,15.93,2.01,13.70,18.23,-9.46,3
-0.28,-0.95,0.25,8.97,9.77,3.36,13.96,18.73,-9.77,3
-0.28,-0.94,0.25,9.09,8.12,2.08,14.50,18.59,-9.89,3
-0.28,-0.95,0.25,7.51,13.43,3.11,14.15,18.58,-9.24,3
-0.26,-0.94,0.27,6.96,13.31,4.27,14.32,18.49,-9.56,3
-0.26,-0.94,0.25,8.79,10.19,2.75,14.23,18.25,-9.52,3
-0.26,-0.96,0.26,7.26,17.58,7.51,14.56,18.46,-9.17,3
-0.24,-0.94,0.26,8.91,10.44,10.86,14.77,18.57,-9.63,3
-0.23,-0.96,0.25,8.67,8.79,11.84,14.61,19.23,-8.87,3
-0.22,-0.96,0.25,5.43,8.48,15.87,14.72,18.51,-9.35,3
-0.18,-0.98,0.27,3.42,11.60,30.09,15.30,18.82,-8.96,3
-0.16,-0.93,0.24,-1.10,12.21,19.90,15.59,18.71,-10.03,3
-0.16,-0.97,0.27,4.21,4.33,8.12,16.05,19.49,-9.41,3
-0.15,-0.97,0.26,4.46,4.03,4.15,15.97,19.26,-9.18,3
-0.14,-0.97,0.27,-1.40,7.69,9.83,16.19,19.13,-9.38,3
-0.13,-0.97,0.27,0.12,7.69,12.27,16.61,18.91,-8.84,3
-0.12,-0.97,0.29,-2.14,10.62,15.87,16.70,19.17,-10.17,3
-0.10,-0.97,0.29,4.70,6.23,12.45,17.50,19.37,-9.57,3
-0.09,-0.97,0.29,2.99,3.78,13.73,17.02,19.46,-10.60,3
-0.07,-0.96,0.29,0.24,7.02,12.82,17.00,19.70,-9.48,3
-0.05,-0.98,0.29,-3.11,8.30,15.81,17.30,19.30,-9.24,3
-0.05,-0.98,0.31,1.65,5.00,16.54,18.04,19.81,-10.13,3
-0.01,-0.94,0.29,-3.05,9.70,20.02,18.81,19.10,-10.07,3
-0.01,-0.98,0.31,-1.04,1.04,15.50,19.12,19.36,-10.12,3
0.01,-0.95,0.31,-0.31,0.73,15.93,19.18,19.71,-10.88,3
0.03,-0.97,0.32,1.28,2.32,17.46,19.63,19.80,-10.07,3
0.04,-0.96,0.33,-0.55,2.44,17.94,19.97,19.62,-11.21,3
0.06,-0.95,0.33,-3.17,1.10,23.62,20.61,19.43,-10.56,3
0.07,-0.96,0.34,1.83,0.92,11.35,21.04,18.90,-10.99,3
0.09,-0.94,0.34,1.40,-1.53,14.28,21.40,19.47,-11.34,3
0.10,-0.97,0.36,2.93,0.79,14.71,21.75,19.53,-11.22,3
0.11,-0.93,0.32,0.98,-0.67,18.49,22.06,19.69,-11.68,3
0.12,-0.95,0.36,3.78,-2.50,14.10,22.55,19.07,-10.90,3
0.13,-0.94,0.33,6.96,-1.77,10.13,22.74,19.10,-10.52,3
0.15,-0.94,0.34,7.20,-5.19,11.96,23.06,18.97,-11.10,3
0.16,-0.93,0.33,5.37,-3.97,10.93,23.46,18.96,-10.88,3
0.16,-0.95,0.34,7.08,-5.13,7.26,23.85,18.48,-11.18,3
0.17,-0.93,0.33,2.99,-2.38,9.09,24.21,18.76,-11.36,3
0.17,-0.95,0.35,-0.92,-5.55,7.14,24.51,18.84,-9.47,3
0.18,-0.93,0.34,-4.21,-2.87,8.12,24.80,19.06,-12.24,3
0.18,-0.92,0.36,-1.16,-3.05,8.06,25.00,18.47,-10.79,3
0.19,-0.94,0.36,2.38,-2.20,9.34,25.02,18.86,-10.91,3
0.20,-0.91,0.35,3.78,-7.45,7.63,25.83,19.24,-11.01,3
0.20,-0.93,0.36,2.44,-5.98,5.86,25.38,18.96,-10.85,3
0.21,-0.92,0.36,-4.27,-4.82,10.93,26.64,18.40,-11.39,3
0.21,-0.92,0.37,1.59,-8.97,10.13,26.16,18.44,-12.18,3
0.22,-0.92,0.37,-0.37,-5.19,11.11,26.76,18.86,-12.13,3
0.22,-0.90,0.37,3.66,-8.00,7.32,26.72,18.20,-12.24,3
0.23,-0.91,0.37,4.94,-7.14,9.28,27.00,18.16,-12.15,3
0.24,-0.91,0.37,2.75,-9.28,9.52,26.81,17.88,-11.67,3
0.24,-0.90,0.39,0.18,-13.24,15.63,27.39,18.18,-12.60,3
0.24,-0.90,0.38,3.72,-11.66,10.80,28.05,18.05,-12.05,3
0.24,-0.89,0.37,7.14,-7.14,14.16,27.82,18.16,-12.32,3
0.26,-0.89,0.38,7.20,-10.25,9.77,28.12,17.85,-11.90,3
0.28,-0.89,0.38,5.13,-8.54,10.99,28.93,17.72,-12.94,3
0.27,-0.89,0.39,5.62,-10.25,8.00,28.48,17.60,-13.16,3
0.28,-0.89,0.37,3.78,-11.66,11.05,29.68,17.90,-12.79,3
0.28,-0.90,0.40,7.87,-12.63,10.25,29.48,17.03,-13.99,3
0.28,-0.89,0.39,7.14,-10.68,8.73,28.94,17.26,-12.10,3
0.28,-0.88,0.40,6.84,-10.19,6.16,29.47,17.36,-13.60,3
0.29,-0.88,0.39,3.11,-9.22,8.36,29.99,17.18,-13.18,3
0.29,-0.89,0.40,5.86,-8.06,6.90,30.16,17.19,-12.99,3
0.30,-0.89,0.39,7.20,-6.96,9.22,30.40,16.91,-13.20,3
0.29,-0.88,0.39,13.67,-10.56,4.58,30.86,17.19,-13.09,3
0.30,-0.89,0.38,12.63,-13.37,5.31,30.77,16.83,-14.17,3
0.29,-0.87,0.37,13.85,-16.91,2.32,30.49,16.44,-12.71,3
0.29,-0.90,0.39,15.26,-18.25,2.26,30.92,16.41,-12.04,3
0.28,-0.89,0.37,12.51,-11.23,3.78,30.98,15.89,-13.21,3
0.29,-0.90,0.37,12.27,-10.50,-0.55,31.04,16.30,-12.78,3
0.27,-0.89,0.35,14.47,-13.24,0.85,30.43,16.44,-11.50,3
0.28,-0.92,0.36,12.94,-11.72,0.31,30.93,16.44,-11.98,3
0.26,-0.90,0.35,18.13,-9.28,-1.95,30.59,16.80,-12.24,3
0.26,-0.93,0.35,13.24,-4.58,3.05,30.43,16.02,-11.62,3
0.27,-0.90,0.33,13.61,-7.45,-0.85,30.63,16.44,-10.74,3
0.26,-0.93,0.33,14.95,-10.68,-0.61,30.37,16.25,-11.44,3
0.26,-0.93,0.31,19.71,-10.13,-2.20,30.33,16.24,-11.63,3
0.26,-0.93,0.31,16.97,-10.99,-1.22,30.57,16.94,-11.89,3
0.24,-0.92,0.29,17.46,-13.06,-3.54,30.51,16.64,-10.19,3
0.24,-0.95,0.29,21.61,-10.07,-3.54,30.96,16.32,-9.80,3
0.23,-0.94,0.26,22.09,-8.00,-4.64,30.44,16.77,-9.99,3
0.23,-0.96,0.25,24.72,-9.95,-4.58,29.98,16.56,-9.81,3
0.22,-0.97,0.22,31.01,-11.41,-4.39,30.07,16.43,-9.63,3
0.21,-0.96,0.20,32.47,-9.70,-6.71,29.90,16.39,-8.56,3
0.20,-0.99,0.18,34.06,-9.95,-7.81,29.80,16.44,-8.37,3
0.19,-0.97,0.15,29.66,-7.57,-6.29,29.47,16.47,-7.67,3
0.18,-0.98,0.13,34.30,-9.22,-12.63,28.74,16.96,-6.34,3
0.16,-1.01,0.09,33.51,-5.13,-11.90,28.33,16.25,-5.64,3
0.16,-1.01,0.07,25.27,-4.09,-5.37,28.45,15.89,-5.60,3
0.14,-0.98,0.04,23.50,-5.92,-8.79,27.92,15.77,-5.15,3
0.13,-1.02,0.04,17.52,-5.49,-8.97,27.75,16.04,-4.36,3
0.13,-1.00,0.03,14.28,-3.85,-6.04,27.66,16.36,-4.14,3
0.11,-1.02,0.00,19.23,-3.36,-11.47,27.29,15.76,-4.20,3
0.10,-1.02,-0.00,14.40,-4.46,-10.50,27.43,15.83,-3.38,3
0.09,-0.99,-0.01,15.38,-4.15,-11.54,26.21,16.22,-2.43,3
0.08,-1.00,-0.02,17.88,-5.07,-15.75,26.39,16.20,-2.61,3
0.06,-1.01,-0.04,14.34,-5.43,-14.71,26.26,15.89,-2.86,3
0.03,-1.01,-0.05,36.13,-6.65,-23.99,26.17,15.81,-2.61,3
0.01,-1.03,-0.07,15.56,-4.88,-11.05,25.05,16.47,-2.06,3
0.00,-1.00,-0.07,9.64,-1.53,-9.16,24.85,16.06,-1.27,3
-0.01,-1.00,-0.08,14.28,-0.06,-20.63,24.23,15.92,-1.59,3
-0.04,-1.04,-0.10,11.41,1.65,-22.22,23.71,16.26,-0.82,3
-0.05,-1.01,-0.09,7.63,-0.61,-11.35,23.21,16.19,-1.51,3
-0.07,-1.01,-0.11,8.97,4.64,-12.39,22.77,16.17,-0.77,3
-0.08,-1.00,-0.11,10.99,0.79,-15.56,22.20,16.19,-1.07,3
-0.11,-1.00,-0.11,-2.26,4.15,-18.55,21.72,16.33,-0.60,3
-0.12,-1.00,-0.10,-3.17,2.69,-15.32,21.30,16.02,-1.34,3
-0.15,-1.00,-0.09,-4.39,3.17,-15.32,21.00,16.16,-1.66,3
-0.15,-1.01,-0.08,-0.67,1.28,-3.85,20.43,16.63,-1.92,3
-0.15,-1.00,-0.08,-2.32,2.44,-2.62,20.67,16.78,-1.95,3
-0.17,-1.01,-0.07,-3.78,3.23,-5.25,19.98,16.37,-1.64,3
-0.17,-0.98,-0.05,-0.98,6.23,-2.62,20.14,16.63,-2.16,3
-0.17,-1.00,-0.06,-0.67,5.68,-1.65,19.74,17.44,-2.51,3
-0.17,-0.98,-0.04,-1.89,8.85,-2.38,19.53,16.96,-2.99,3
-0.19,-1.02,-0.04,-2.69,6.90,-3.72,19.15,17.11,-2.64,3
-0.19,-1.00,-0.03,-1.34,9.09,-5.86,19.31,17.24,-2.70,3
-0.19,-1.01,-0.03,-2.14,8.12,-2.81,18.59,17.20,-2.80,3
-0.20,-1.00,-0.02,-2.20,7.14,-5.13,18.48,16.96,-2.09,3
-0.21,-1.00,-0.01,-2.62,6.04,-4.33,18.49,17.04,-2.98,3
-0.21,-0.99,0.01,-3.78,11.54,-3.85,18.01,16.98,-2.17,3
-0.23,-0.98,0.01,0.67,7.45,-3.85,17.87,16.76,-4.26,3
-0.23,-0.99,0.01,-1.28,8.12,-5.80,17.76,16.89,-3.69,3
-0.24,-0.98,0.05,-0.12,9.52,-3.36,17.32,17.33,-3.44,3
-0.25,-1.03,0.01,-0.98,16.91,-4.64,17.26,17.57,-2.88,3
-0.25,-1.00,0.04,-1.59,16.97,-1.89,16.56,17.21,-3.49,3
-0.24,-0.96,0.07,0.79,13.55,0.31,16.08,17.87,-4.03,3
-0.24,-1.00,0.04,3.60,11.47,0.37,16.25,17.40,-3.94,3
-0.27,-0.99,0.07,-1.10,9.09,-1.46,15.63,17.75,-3.53,3
-0.25,-1.00,0.06,2.75,9.70,-1.16,15.72,17.42,-4.66,3
-0.25,-0.97,0.08,3.30,3.97,1.59,15.99,17.41,-4.33,3
-0.24,-0.97,0.07,0.73,6.84,1.46,15.03,17.40,-4.54,3
-0.25,-0.99,0.09,0.18,8.06,1.95,15.03,17.64,-5.63,3
-0.24,-0.97,0.11,-8.61,10.01,6.35,14.92,17.80,-5.58,3
-0.24,-0.98,0.12,-0.79,7.81,2.69,14.67,17.65,-5.62,3
-0.23,-0.99,0.12,-2.50,10.80,3.97,14.92,18.48,-6.25,3
-0.28,-0.89,0.09,-7.87,16.36,9.77,14.59,18.58,-6.80,3
-0.22,-1.00,0.15,1.89,5.68,6.84,14.72,18.49,-6.48,3
-0.21,-1.00,0.17,7.63,6.10,11.90,14.78,18.93,-6.86,3
-0.19,-0.96,0.13,10.07,8.91,11.23,15.23,18.25,-6.10,3
-0.19,-1.01,0.16,10.50,4.94,13.06,15.82,18.32,-6.02,3
-0.17,-0.97,0.15,11.05,5.43,15.93,15.69,18.59,-5.74,3
-0.16,-1.00,0.13,4.58,9.95,14.89,16.26,18.75,-5.42,3
-0.14,-1.00,0.15,-0.24,4.94,18.68,16.56,18.70,-5.62,3
-0.12,-0.99,0.15,-7.20,7.93,31.62,16.61,18.82,-6.16,3
-0.09,-1.01,0.15,-2.32,1.59,21.24,16.91,18.87,-7.08,3
-0.06,-0.96,0.19,-8.00,1.04,26.79,18.08,19.64,-6.43,3
-0.05,-0.99,0.17,2.50,4.15,10.07,18.59,19.23,-5.92,3
-0.04,-1.00,0.18,-0.12,2.81,13.55,18.35,18.75,-6.85,3
-0.03,-0.99,0.19,-5.55,6.71,20.87,18.38,19.24,-7.53,3
-0.01,-0.99,0.20,-3.17,5.00,19.71,18.97,19.02,-7.85,3
0.00,-1.00,0.21,0.37,2.99,14.89,19.36,19.34,-7.56,3
0.03,-0.99,0.20,-3.48,4.76,25.94,20.41,19.09,-7.28,3
0.05,-0.99,0.21,0.85,2.99,15.63,20.84,19.64,-7.52,3
0.07,-1.00,0.21,-7.02,4.15,25.76,21.52,18.85,-8.23,3
0.09,-0.97,0.22,4.64,-1.46,22.03,21.89,18.87,-8.29,3
0.11,-1.02,0.24,-1.83,1.28,22.89,22.44,18.64,-8.11,3
0.13,-0.94,0.22,-2.93,-3.17,27.28,23.10,18.95,-8.07,3
0.14,-0.99,0.24,4.52,-3.66,13.67,24.01,18.71,-7.82,3
0.16,-0.98,0.25,-1.89,-4.39,18.55,24.04,18.51,-8.97,3
0.17,-0.97,0.24,2.62,-2.99,15.20,24.44,18.54,-9.45,3
0.20,-0.97,0.25,0.00,-5.68,16.17,25.07,18.84,-9.18,3
0.21,-0.95,0.26,2.38,-4.94,12.33,25.34,18.05,-9.14,3
0.21,-0.96,0.24,5.74,-2.38,6.47,24.94,18.21,-8.56,3
0.21,-0.96,0.25,2.14,-5.13,11.17,25.76,18.07,-9.24,3
0.22,-0.94,0.25,3.60,-8.85,19.96,26.26,18.53,-9.53,3
0.23,-0.95,0.26,-0.67,-5.19,11.35,26.79,18.32,-8.04,3
0.26,-0.95,0.28,-6.90,-2.56,13.37,27.47,17.32,-9.79,3
0.27,-0.94,0.28,1.71,-4.15,9.83,27.82,17.93,-9.29,3
0.27,-0.94,0.28,4.76,-8.54,6.29,27.86,17.58,-10.77,3
0.28,-0.93,0.28,6.77,-7.02,8.61,27.93,17.47,-9.66,3
0.27,-0.93,0.27,4.58,-9.95,5.43,28.20,17.43,-9.66,3
0.28,-0.92,0.29,10.80,-11.90,6.96,28.36,17.46,-9.95,3
0.28,-0.94,0.27,11.29,-9.64,4.70,28.42,17.19,-9.79,3
0.28,-0.93,0.28,6.90,-10.74,7.02,28.69,17.47,-9.91,3
0.29,-0.93,0.26,7.45,-9.40,6.77,28.91,17.40,-10.22,3
0.28,-0.92,0.27,2.99,-17.27,9.95,28.42,17.58,-9.07,3
0.30,-0.93,0.28,8.79,-14.77,8.54,29.31,16.46,-8.74,3
0.31,-0.92,0.27,5.25,-13.49,8.48,29.42,16.36,-9.99,3
0.30,-0.93,0.28,8.91,-16.48,7.02,29.38,16.99,-10.44,3
0.30,-0.93,0.27,13.37,-21.18,9.83,29.90,16.74,-9.92,3
0.31,-0.92,0.27,4.88,-15.26,8.97,30.32,16.61,-10.11,3
0.31,-0.93,0.29,13.92,-15.93,4.94,29.86,16.33,-9.51,3
0.30,-0.91,0.26,11.66,-14.89,3.05,30.69,16.31,-9.45,3
0.31,-0.92,0.27,20.39,-21.30,1.77,30.42,16.42,-9.11,3
0.29,-0.92,0.26,15.50,-18.49,1.71,31.18,16.42,-9.29,3
0.30,-0.95,0.26,32.84,-16.30,-3.91,31.08,16.17,-8.40,3
0.28,-0.93,0.21,30.09,-16.48,-1.77,31.32,16.39,-8.48,3
0.28,-0.97,0.21,40.34,-14.53,-4.94,30.24,15.92,-8.23,3
0.27,-0.94,0.16,42.97,-15.93,-5.07,30.80,16.21,-7.86,3
0.25,-1.01,0.12,53.96,-20.69,-9.70,29.92,16.38,-6.05,3
0.25,-0.96,0.07,47.30,-10.13,-6.65,30.13,16.49,-5.26,3
0.23,-0.97,-0.02,48.03,-13.92,-13.49,29.87,15.53,-4.41,3
0.22,-0.99,0.01,29.85,-10.99,-16.48,29.37,15.47,-3.88,3
0.21,-0.95,-0.01,33.75,-12.21,-19.29,29.52,15.58,-3.59,3
0.17,-1.00,-0.03,40.16,-13.55,-30.88,28.21,15.86,-2.14,3
0.16,-1.00,-0.06,22.89,-5.25,-16.42,28.02,14.86,-1.76,3
0.13,-1.01,-0.10,41.20,-7.32,-22.71,27.67,14.84,-2.09,3
0.12,-1.03,-0.13,20.08,-8.18,-9.28,27.32,14.64,-1.26,3
0.11,-1.00,-0.14,21.61,-7.75,-7.93,27.17,14.43,-0.49,3
0.09,-1.00,-0.16,23.01,-3.91,-11.78,26.95,14.34,0.61,3
0.08,-0.99,-0.18,19.47,-2.99,-13.98,26.61,14.00,0.60,3
0.06,-1.01,-0.19,18.01,-3.54,-16.78,26.42,14.15,0.88,3
0.05,-0.97,-0.20,1.83,-1.95,-8.30,25.73,14.29,1.23,3
0.03,-1.00,-0.19,-8.12,3.97,-12.15,25.62,14.33,0.42,3
0.01,-1.00,-0.17,-8.97,-1.40,-9.83,25.71,14.53,0.10,3
0.02,-1.01,-0.16,-33.57,5.31,-19.59,25.18,15.36,-1.14,3
-0.01,-1.00,-0.11,-42.18,-2.20,-11.90,24.61,15.34,-0.88,3
-0.04,-1.04,-0.07,-27.59,1.77,-10.99,24.23,16.03,-1.76,3
-0.06,-0.99,-0.05,-17.88,4.94,-10.80,23.68,16.52,-2.71,3
-0.04,-1.00,-0.04,-4.88,7.93,-0.43,23.44,16.83,-2.45,3
-0.06,-1.02,0.00,-16.85,6.23,-15.87,22.85,17.03,-4.04,3
-0.07,-0.99,0.01,-12.33,-2.56,-5.13,22.33,17.38,-4.27,3
-0.10,-0.96,0.03,-23.07,0.79,-14.40,21.63,17.59,-4.39,3
-0.12,-1.04,0.05,-12.70,3.30,-17.21,21.47,18.52,-5.03,3
-0.14,-1.01,0.06,-6.29,-3.42,-14.10,21.00,18.38,-5.73,3
-0.16,-1.00,0.08,1.28,-2.08,-13.98,20.65,18.40,-5.71,3
-0.17,-1.02,0.08,-10.13,-2.44,-9.83,19.68,18.48,-6.02,3
-0.19,-0.98,0.10,1.71,-4.76,-16.97,19.60,18.18,-6.62,3
-0.20,-0.98,0.08,-3.11,-4.46,-21.55,18.69,18.15,-6.84,3
-0.24,-1.02,0.12,-7.20,-0.98,-10.07,18.62,19.17,-6.24,3
-0.23,-0.96,0.11,-2.01,-3.30,-20.94,17.81,18.35,-6.80,3
-0.24,-0.97,0.12,-9.40,3.48,-3.17,17.49,18.76,-7.06,3
-0.28,-0.97,0.16,-17.70,0.12,-6.71,17.18,18.41,-7.92,3
-0.27,-1.20,0.15,-15.20,9.77,22.28,18.09,18.52,-7.98,3
-0.22,-0.95,0.15,-10.25,6.23,15.20,17.97,19.29,-8.48,3
-0.22,-0.95,0.21,-7.20,2.75,7.02,18.40,19.71,-9.59,3
-0.21,-0.97,0.23,8.36,5.62,2.69,17.92,19.90,-9.72,3
-0.22,-0.95,0.21,1.16,4.46,0.37,17.88,19.37,-9.09,3
-0.20,-0.96,0.21,35.58,12.63,-1.10,17.70,18.65,-8.86,3
-0.25,-0.98,0.13,32.04,3.60,11.72,18.14,19.12,-8.39,3
-0.17,-0.97,0.15,57.50,3.11,-0.79,17.86,18.36,-6.81,3
-0.22,-0.99,0.04,51.88,-2.08,-1.10,17.79,18.19,-4.71,3
-0.21,-1.03,0.08,-7.63,8.61,1.22,17.66,18.55,-4.59,3
-0.20,-1.03,0.02,20.14,11.29,-5.86,17.57,18.14,-5.10,3
-0.20,-1.01,0.05,0.43,17.40,-0.55,17.03,18.58,-4.35,3
-0.23,-0.99,0.06,1.04,1.04,-8.30,17.03,18.05,-4.19,3
-0.25,-1.00,0.07,-2.56,7.26,-4.58,16.35,18.43,-4.70,3
-0.24,-1.01,0.05,-4.58,8.61,-14.95,16.33,18.42,-6.13,3
-0.25,-0.98,0.09,-9.95,11.11,-21.73,16.14,18.33,-5.30,3
-0.30,-0.97,0.12,-10.99,12.27,-12.27,15.34,18.47,-5.88,3
-0.28,-0.96,0.13,-5.25,13.24,-15.63,14.36,18.13,-6.49,3
-0.32,-0.97,0.13,-2.75,9.16,-11.90,14.00,18.73,-5.20,3
-0.31,-0.98,0.15,-9.58,17.94,-16.85,13.27,18.49,-7.58,3
-0.33,-0.92,0.17,-6.04,12.45,-9.77,12.62,18.48,-7.56,3
-0.32,-0.91,0.18,1.71,9.09,2.26,12.62,18.16,-7.23,3
-0.32,-0.95,0.19,5.13,11.05,5.86,12.48,18.47,-7.18,3
-0.33,-0.94,0.19,2.62,14.65,5.07,12.73,18.70,-8.15,3
-0.31,-0.96,0.19,0.61,13.06,7.45,12.34,18.41,-7.96,3
-0.30,-0.96,0.21,1.40,15.32,10.74,12.87,18.48,-7.25,3
-0.30,-0.95,0.23,-0.79,3.91,8.67,13.06,18.38,-7.73,3
-0.27,-0.94,0.20,-4.46,10.86,14.53,13.44,18.21,-8.63,3
-0.27,-0.96,0.25,-16.54,11.66,24.48,13.09,18.37,-9.55,3
-0.21,-0.93,0.28,-15.38,5.49,33.02,13.85,18.73,-10.49,3
-0.20,-0.95,0.28,-8.06,3.85,24.90,14.71,19.38,-10.44,3
-0.19,-0.98,0.32,-5.74,2.81,27.53,15.34,19.25,-10.82,3
-0.16,-0.95,0.30,5.98,-6.16,25.33,16.36,19.76,-10.91,3
-0.15,-0.94,0.30,7.69,1.16,27.71,16.71,19.41,-10.44,3
-0.13,-1.01,0.32,13.73,-1.04,30.40,17.91,19.38,-10.97,3
-0.08,-0.94,0.28,12.70,-1.95,29.17,18.44,19.43,-10.68,3
-0.05,-0.98,0.28,14.10,-3.97,25.63,19.31,19.12,-11.13,3
-0.04,-0.97,0.28,12.63,-7.45,19.71,19.43,19.65,-10.19,3
-0.02,-0.97,0.27,12.70,-6.16,24.05,20.34,19.14,-10.56,3
0.00,-0.99,0.25,18.80,-5.37,23.01,21.67,19.18,-9.61,3
0.01,-0.98,0.23,12.02,-11.41,24.78,21.90,19.18,-8.97,3
0.04,-0.98,0.25,2.99,2.50,25.51,22.86,19.17,-8.45,3
0.07,-0.98,0.23,18.19,-8.54,7.08,22.49,18.73,-8.18,3
0.06,-1.00,0.22,13.49,-14.95,13.24,23.05,18.98,-8.58,3
0.04,-0.99,0.22,1.65,-3.05,9.58,23.11,18.82,-8.52,3
0.09,-1.00,0.22,14.34,-12.76,0.61,24.01,18.55,-7.74,3
0.07,-0.99,0.23,17.03,-17.46,5.07,23.85,18.84,-7.91,3
0.06,-0.99,0.21,12.57,-11.05,5.62,23.73,18.75,-7.65,3
0.07,-0.99,0.19,8.67,-1.46,5.07,24.05,18.37,-8.03,3
0.08,-1.00,0.19,14.22,-10.01,2.20,24.04,19.03,-7.24,3
0.07,-0.99,0.18,19.04,-12.70,5.92,23.95,19.24,-7.51,3
0.08,-0.99,0.18,16.54,-11.41,5.25,24.78,18.25,-7.76,3
0.09,-1.00,0.15,23.86,-12.63,3.60,24.54,18.43,-7.10,3
0.09,-1.00,0.14,24.35,-18.74,3.91,24.40,18.40,-6.01,3
0.09,-0.99,0.12,17.46,-13.37,2.26,24.51,18.07,-6.03,3
0.07,-1.02,0.10,17.03,-15.44,-1.59,24.56,17.88,-5.10,3
0.08,-0.98,0.10,14.16,-16.11,2.56,25.24,17.48,-5.98,3
0.07,-1.01,0.09,22.71,-29.36,-0.49,25.09,17.90,-5.24,3
0.08,-1.00,0.07,29.79,-27.28,0.00,25.13,17.18,-5.16,3
0.05,-1.00,0.04,18.01,-18.98,-3.17,25.27,17.15,-5.36,3
0.06,-1.01,0.04,10.80,-12.33,0.55,25.68,16.66,-4.14,3
0.06,-1.01,0.03,12.57,-8.54,-3.72,25.28,17.29,-4.28,3
0.07,-1.01,0.03,14.89,-11.54,-0.61,25.56,16.49,-4.53,3
0.06,-1.00,0.01,12.88,-12.70,-2.62,25.62,16.88,-4.43,3
0.06,-1.02,-0.01,44.74,-17.76,-5.49,25.59,16.69,-3.50,3
0.04,-1.02,-0.01,15.01,-16.11,-4.76,25.81,16.53,-2.69,3
0.04,-1.03,-0.04,24.72,-9.95,-6.65,25.76,15.86,-2.29,3
0.03,-1.01,-0.04,18.98,-8.97,-14.34,25.21,15.87,-2.99,3
0.00,-1.02,-0.07,22.22,-12.21,-15.38,25.04,15.99,-2.59,3
-0.00,-1.00,-0.08,17.21,-14.83,-14.28,25.11,16.44,-1.26,3
-0.02,-1.02,-0.11,14.04,-11.78,-10.31,24.49,15.50,-1.84,3
-0.03,-1.01,-0.11,6.04,-7.57,-9.34,24.40,15.76,-2.31,3
-0.04,-1.01,-0.11,9.77,-4.58,-9.03,23.83,16.05,-1.21,3
-0.04,-1.01,-0.12,2.26,-7.75,-7.02,24.13,16.52,-1.83,3
-0.05,-1.01,-0.10,6.23,-6.23,-11.11,23.61,16.22,-0.78,3
-0.08,-1.01,-0.11,6.59,-9.95,-17.21,23.12,16.59,-1.50,3
-0.09,-0.99,-0.12,11.05,-4.52,-11.17,22.74,16.14,-1.23,3
-0.11,-1.00,-0.12,3.17,-1.71,-6.41,22.35,16.06,-1.49,3
-0.11,-1.00,-0.12,7.20,-2.50,-10.56,22.57,15.64,-1.72,3
-0.13,-1.01,-0.12,2.87,-5.25,-12.08,21.73,15.92,-0.98,3
-0.14,-0.99,-0.12,3.48,-4.03,-12.45,21.56,16.35,-1.09,3
-0.17,-1.01,-0.12,-1.04,-0.43,-7.14,21.55,16.35,-1.81,3
-0.16,-0.99,-0.10,-4.82,3.48,-7.45,21.75,16.55,-1.68,3
-0.18,-1.00,-0.09,-5.74,1.04,-9.89,20.95,16.26,-1.53,3
-0.18,-1.01,-0.09,-1.46,-0.98,-10.68,20.51,16.94,-1.78,3
-0.20,-0.98,-0.07,-2.99,-3.42,-13.12,20.19,16.80,-1.88,3
-0.21,-0.99,-0.08,-2.56,-0.06,-14.22,19.74,16.93,-2.65,3
-0.24,-0.99,-0.07,-0.12,-2.20,-12.51,19.36,17.52,-1.90,3
-0.24,-0.98,-0.06,0.18,-2.38,-8.54,19.13,17.21,-3.21,3
-0.26,-0.99,-0.06,1.22,-2.32,-10.68,18.87,17.43,-3.52,3
-0.28,-0.97,-0.06,3.66,-6.71,-10.56,18.16,16.92,-2.54,3
-0.28,-0.97,-0.06,4.94,-5.19,-9.28,18.07,17.09,-2.58,3
-0.29,-0.96,-0.06,3.11,-2.56,-3.91,17.99,17.19,-2.59,3
-0.30,-0.97,-0.06,1.10,-0.06,-5.31,17.47,17.11,-3.05,3
-0.30,-0.97,-0.06,1.10,-0.37,-5.49,17.48,17.37,-3.14,3
-0.32,-0.98,-0.05,1.46,-0.92,-6.71,16.87,16.71,-2.50,3
-0.31,-0.96,-0.04,2.50,-3.91,-7.20,16.80,16.97,-3.31,3
-0.33,-0.95,-0.04,3.17,0.61,-5.31,16.60,17.36,-3.74,3
-0.34,-0.97,-0.04,-0.73,1.77,-7.39,15.89,17.15,-3.14,3
-0.34,-0.96,-0.03,-2.08,4.27,-5.13,15.99,16.98,-3.97,3
-0.33,-0.95,-0.02,-0.43,3.17,-3.78,16.67,17.49,-3.50,3
-0.35,-0.96,-0.02,0.92,2.26,-2.38,15.69,17.20,-3.50,3
-0.36,-0.94,-0.00,-3.54,7.87,-5.80,15.54,17.71,-4.41,3
-0.36,-0.95,0.00,-3.97,6.35,-6.10,14.83,17.26,-3.17,3
-0.37,-0.95,0.02,-4.33,8.91,-5.68,15.20,17.54,-5.18,3
-0.38,-0.94,0.03,-3.91,7.57,-3.11,14.54,17.35,-5.57,3
-0.38,-0.94,0.04,1.65,3.05,0.67,14.98,17.65,-5.81,3
-0.37,-0.95,0.05,-2.26,5.19,7.32,14.88,17.15,-5.94,3
-0.37,-0.92,0.05,0.18,4.94,1.77,14.64,17.61,-5.57,3
-0.38,-0.95,0.05,2.01,7.81,-1.89,14.69,18.13,-6.12,3
-0.37,-0.94,0.06,1.40,3.97,1.59,14.16,17.50,-5.66,3
-0.38,-0.93,0.07,1.28,12.45,4.88,14.16,17.49,-6.36,3
-0.37,-0.95,0.08,1.34,14.53,6.04,14.55,17.47,-5.87,3
-0.36,-0.94,0.09,2.81,12.27,2.50,13.94,18.08,-5.25,3
-0.36,-0.95,0.10,3.36,8.48,0.79,13.51,17.04,-6.53,3
-0.36,-0.94,0.09,2.81,1.89,-0.55,14.21,17.86,-5.05,3
-0.37,-0.95,0.10,2.87,6.16,3.48,14.28,17.87,-5.64,3
-0.36,-0.95,0.11,4.64,6.47,0.49,13.70,18.30,-5.91,3
-0.36,-0.94,0.11,2.01,4.09,2.93,13.37,17.55,-5.98,3
-0.36,-0.94,0.12,4.03,5.00,2.99,14.37,18.03,-5.68,3
-0.35,-0.94,0.12,2.38,3.72,3.91,13.28,18.46,-6.65,3
-0.35,-0.94,0.13,2.14,3.78,3.60,13.15,17.74,-5.90,3
-0.35,-0.94,0.13,4.52,3.66,2.87,13.73,18.01,-5.82,3
-0.35,-0.95,0.13,3.36,3.54,5.00,13.24,17.83,-6.35,3
-0.34,-0.95,0.13,4.88,3.78,5.31,13.73,18.19,-6.70,3
-0.35,-0.95,0.13,3.60,2.50,4.64,13.66,18.43,-6.58,3
-0.33,-0.95,0.13,5.55,5.86,3.30,14.05,18.30,-5.70,3
-0.34,-0.95,0.14,4.21,6.29,6.41,13.85,17.86,-6.75,3
-0.32,-0.95,0.14,6.59,5.49,5.07,13.92,17.85,-7.04,3
-0.33,-0.96,0.14,4.76,0.18,4.03,13.78,17.94,-6.20,3
-0.32,-0.95,0.14,4.33,1.83,3.85,13.54,18.05,-6.68,3
-0.32,-0.95,0.14,5.19,3.60,5.43,13.59,17.92,-6.87,3
