ax,ay,az,gx,gy,gz,mx,my,mz,label
-0.09,0.98,0.03,-2.32,-0.55,2.14,19.86,-33.91,-26.78,3
0.08,1,-0.14,1.95,14.28,5.25,25.09,-35.69,-23.88,3
-0.23,-0.23,-0.97,4.88,-1.77,1.71,17.85,-15.81,14.23,2
-0.02,0.03,-0.99,-6.65,-11.23,7.2,22.01,-22.28,11.65,2
0.06,0.01,1,6.35,-2.87,0.92,22.95,2.32,-39.58,1
0.95,0.17,-0.15,35.89,-57.56,28.63,43.19,-8.5,-0.13,5
-0.99,-0.08,-0.17,5.13,-3.66,3.97,-7.04,7.57,-10.85,4
-1,-0.09,-0.12,7.75,-11.78,0.24,-9.85,-9.57,-24.4,4
-0.02,-0.33,0.95,-0.49,-2.99,1.28,21.68,9.95,-35.12,1
0.07,0.98,-0.12,12.51,5.43,6.04,27.42,-36.29,-23.6,3
0.11,-0.08,-1.01,1.71,-7.57,-2.44,26.06,-20.86,12.17,2
0.18,-0.98,0.13,34.3,-9.22,-12.63,28.74,16.96,-6.34,3
-0.26,-0.95,0.22,10.86,-0.92,11.78,13.79,18.73,-8.45,3
-0.98,-0.12,0.15,-18.55,-6.53,3.3,-8.2,-17.07,-21.48,4
0.98,0.03,-0.08,-2.14,-6.53,-2.56,44.47,-21.94,-12.73,5
0.3,-0.89,0.39,7.2,-6.96,9.22,30.4,16.91,-13.2,3
0.21,-0.61,-0.78,2.99,-3.11,2.14,28.3,-4,11.93,2
-0.98,-0.12,0.04,-11.72,-0.79,3.72,-11.21,-13.06,-8.22,4
0,-0.25,-1,-67.87,-3.66,2.75,22.34,-15.08,13.06,2
0.24,-0.11,-0.97,3.66,-3.85,1.46,28.58,-18.27,10.45,2
-0.36,0.15,-0.91,-2.62,1.77,18.19,12.29,-28.58,6.8,2
-1.09,-0.12,0,56.52,-3.6,-5.31,-8.67,-18.03,-18.85,4
-0.23,-0.23,-0.97,4.52,-3.23,1.1,17.59,-15.16,13.88,2
-0.02,0.07,1.02,-14.89,32.23,-8.61,21.44,1.31,-40.75,1
0.01,-1.03,0.02,8.54,1.1,-2.5,21.2,17.85,-2.34,3
-1.06,-0.11,-0.02,119.2,-45.23,20.32,-9.51,-13.39,-21.07,4
0.17,-0.17,-0.99,-23.74,2.62,-7.57,23.85,-16.24,12.54,2
0.98,-0.06,-0.01,-12.08,-5.19,2.56,44.59,-21.47,-11.33,5
0.33,0,0.94,8.12,-9.77,1.77,28.98,3.05,-37.93,1
-0.02,-0.21,1,-53.04,26.31,14.77,20.8,7.69,-36.33,1
0.04,-1.01,-0.22,-40.53,-5.25,11.72,23.22,13.98,2.36,3
-0.05,-0.96,0.29,-0.55,-0.24,18.07,19.85,19.32,-11.04,3
1,0.03,0.09,10.19,-1.28,0.37,44.8,-2.78,-6.79,5
0.05,-0.81,0.58,-20.08,-3.17,1.16,23.45,18.04,-19.02,3
0.01,0.08,0.98,-1.28,-3.36,-1.77,20.51,2.7,-40.52,1
0.97,-0.21,-0.07,3.66,-2.87,1.77,44.4,-9.47,-0.94,5
0.07,-0.14,0.97,4.82,-17.82,4.15,23.17,6.38,-37.39,1
-1,0.01,0.11,2.87,-0.61,2.99,-8.01,-5.68,-5.33,4
0.09,-0.15,0.98,3.17,-8.3,0.24,23.44,6.27,-37.28,1
0.85,-0.49,0.19,12.33,3.85,-5,46.19,-1.72,-8.76,5
0.06,-0.81,0.59,16.48,-3.97,0.61,22.83,18.21,-20.17,3
0.86,0.5,-0.05,4.03,-3.85,2.87,40.93,-21.08,-0.78,5
0.96,-0.16,0.16,42.18,56.46,-10.19,45.12,-8.33,-7.79,5
0.99,-0.1,0,13.98,-0.18,-7.57,43.25,4.17,-12.24,5
0.25,0.28,-0.93,3.48,-1.65,2.44,29.91,-29.83,4.64,2
0.99,-0.01,0.01,3.17,-3.6,1.1,45.52,-12.66,-2.62,5
0.06,0.01,0.99,5.43,-3.78,2.26,22.91,2.89,-39.26,1
-0.97,-0.04,-0.07,4.15,-2.87,1.53,-9.13,-9.57,-25.45,4
-0.05,0.03,-1.01,4.33,-2.62,1.34,21.86,-22.19,12,2
-0.05,0.12,-1.02,24.84,24.78,-3.66,21.97,-23.89,9.9,2
0.81,-0.21,0.53,5.55,-5.07,18.19,47.01,-5.43,-17.5,5
-0.99,0.02,0.05,21.67,4.21,3.36,-8.53,4.17,-18.14,4
-0.03,-0.8,-0.63,1.1,-3.97,2.01,20.29,5.2,10.33,3
-0.07,-0.01,0.99,3.42,-4.7,1.65,20.04,3.23,-40.52,1
0.92,-0.44,-0.12,-6.16,-3.54,61.89,42.3,-3.37,0.9,5
-0.1,0.95,-0.26,-8.85,10.68,-9.77,22.25,-36.07,-19.75,3
0.02,0.3,-0.95,6.9,-1.4,3.72,23.16,-28.67,5.25,2
-0.13,0.97,-0.1,-5.37,5.07,3.6,18.63,-35.05,-24.28,3
-0.03,0.19,0.96,38.33,24.35,-8.06,21.55,-2.12,-41.83,1
-0.85,-0.39,-0.34,5.49,0.24,-1.83,-2.39,12.38,-13.22,4
0.98,-0.06,0.03,5.98,-2.75,2.44,43.91,3.69,-11.67,5
-0.01,-0.01,0.99,4.03,-3.11,1.4,21.03,4.19,-40.12,1
-0.04,0.07,0.98,2.69,-4.52,1.53,19.68,2.28,-40.26,1
0.07,0.98,-0.08,3.6,-2.44,1.22,24.46,-35.03,-25.23,3
-0.19,0.96,-0.11,1.53,-3.6,1.04,18.46,-35.69,-23.27,3
-0.01,0.02,1,5.8,-5.68,3.48,21.7,2.44,-40.2,1
0.07,0.87,-0.4,33.81,-11.17,-2.81,26.54,-36.06,-15.01,3
-0.11,0.02,0.99,5.55,-1.4,1.89,19.74,1.87,-40.83,1
-0.09,0.98,0.06,-2.62,-5.8,4.7,19.49,-33.97,-27.67,3
0.81,0.56,-0.07,4.76,-8.12,2.5,39.17,-25.67,-0.06,5
-0.99,-0.09,0,5.37,-3.97,7.02,-6.97,-19.62,-13.72,4
-0.02,0.08,-1.01,4.7,-2.2,0.79,23.72,-24.08,10.8,2
0.98,-0.06,0.02,2.81,-3.17,2.99,43.4,4.38,-11.46,5
0.86,0.52,-0.06,2.93,-6.35,28.14,39.37,-23.5,-0.49,5
0,-1.01,0.01,-0.73,-4.33,1.65,20.64,16.81,-2.43,3
-0.07,0,0.99,5.68,-4.27,1.77,20.21,2.38,-40.41,1
0.17,-0.12,-0.99,19.1,8.67,-1.59,27.56,-19.45,11.45,2
-0.05,0.03,-1.01,4.64,-2.87,1.16,21.58,-22.2,10.8,2
-0.02,0.38,-0.93,2.93,-2.44,1.1,21.28,-29.42,5.41,2
0.28,-0.03,0.96,4.88,-13.61,2.5,28.71,3.83,-37.5,1
-0.04,0.17,0.98,40.59,18.25,3.66,21.8,-2.34,-42.29,1
0.98,0.03,0.09,11.17,-4.39,2.38,43.19,-7.03,-27.61,5
-0.11,0.09,-1.01,-39.98,10.8,3.91,20.04,-23.1,9.31,2
0.39,-0.01,0.91,2.69,-3.54,1.46,31.76,3.25,-37.15,1
-0.01,-0.01,1,4.21,-3.05,1.28,20.45,3.56,-39.18,1
-0.97,-0.04,0,-34,7.69,15.44,-10.22,-15.98,-11.06,4
-0.02,0.33,-0.99,5.13,31.62,9.77,22.81,-30.22,5.48,2
0,0.85,-0.52,14.16,0.85,4.76,22.61,-36.34,-12.46,3
-0.04,0.02,-1.02,1.46,-2.5,1.34,22.28,-21.34,11.76,2
-0.11,0.02,0.99,3.36,-2.26,1.28,19.21,1.55,-40.01,1
0.71,-0.07,-0.65,2.99,-0.55,2.14,30.97,-11.78,12.15,5
0.09,-0.13,-1,-7.39,-5.74,2.14,24.74,-18.79,12.7,2
-0.07,0.12,0.98,0.73,-7.87,3.3,20.48,0.32,-40.54,1
-1,-0.02,-0.04,-15.81,0.18,9.83,-8.26,5.43,-13.67,4
0.15,0.51,-0.84,16.54,4.27,9.4,24.98,-34.63,0.62,2
-0.17,0.96,-0.03,4.58,-13.98,-16.6,21.15,-34.59,-25.85,3
-0.06,0.97,-0.26,-26.61,-7.93,2.87,20.53,-34.97,-20.69,3
-1,0.05,-0.07,10.62,14.04,-20.32,-9.68,2.33,-18.47,4
-0.01,-0.97,-0.39,22.09,-5.86,0,22.3,9.9,6.85,3
-0.22,0.92,-0.03,4.09,-15.87,-1.89,19.53,-34.66,-27,3
0.05,0.05,0.98,11.6,-2.62,0.37,22.78,1.2,-40.06,1
0.05,-0.98,0.26,-25.76,-1.16,4.46,23,18.87,-9.25,3
-0.02,0.08,-1.01,4.46,-2.69,1.4,23.77,-24.57,10.16,2
0.03,0.03,-1.01,3.72,-6.35,1.59,23.85,-23.25,11.84,2
0.1,0.08,-0.97,54.02,-5.43,8.36,25.35,-23.74,9.67,2
0.44,-0.37,0.81,17.46,0.85,-63.9,32.01,11.36,-28.85,5
-0.96,-0.03,-0.1,-1.59,2.87,-5.13,-9.34,-9.77,-24.33,4
-0.18,-0.97,0.27,14.04,-5.13,-12.76,16.11,19.13,-9.64,3
-0.03,0.15,0.95,33.2,-21.18,0.49,22.73,-2.42,-42.02,1
-0.05,0.03,-1.01,4.09,-2.87,1.34,21.69,-22.24,11.06,2
0.98,-0.02,0.03,5.49,-6.71,1.16,44.35,-2.04,-23.91,5
0.13,0.08,0.98,27.34,-6.16,-0.98,24.76,1.23,-38.88,1
-0.14,-0.38,-0.91,-12.08,-37.6,22.58,21.2,-11.56,13.89,2
0.09,0.98,-0.17,8.85,11.66,0.43,26.46,-35.16,-23.72,3
-0.02,0.11,-1.01,-2.01,-6.53,0.06,21.53,-24.22,10.51,2
0.06,0.01,0.99,2.69,-2.75,1.53,22.78,2.8,-39.79,1
0,0.04,-1,4.33,-2.69,0.06,23.28,-23.36,10.77,2
0.21,0,-0.98,-2.56,-8.36,3.42,27.75,-22.13,10.21,2
-0.36,0.12,-0.94,-11.72,1.89,1.1,13.32,-22.73,10.33,2
0.02,-0.19,0.97,0.31,-3.85,0.92,22.06,7.76,-36.79,1
0.02,0.12,1,3.6,-2.99,0.85,22.84,-0.6,-40.76,1
-0.02,0.47,0.86,1.22,-2.75,1.77,23.8,-11.94,-41.52,1
0.1,-0.31,-1.02,56.15,25.02,-20.75,23.45,-14.48,14.22,2
0.17,-0.28,-0.97,78.98,-22.28,9.83,27.91,-15.01,13.73,2
-0.16,0,-0.98,2.62,-1.83,2.01,18.59,-22.35,11.06,2
-0.02,0.39,-0.93,1.77,-2.44,1.71,21.62,-29.68,4.83,2
-0.87,0,0.49,4.09,8.54,-3.05,-3.98,5.14,-30.91,4
-0.01,0.05,-1.01,6.65,-2.75,-1.28,24.11,-24.3,11.55,2
-0.21,0.97,-0.02,2.81,-12.76,0.37,19.52,-34.2,-26.73,3
-1.01,-0.05,0.06,55.11,8.06,-9.22,-12.33,-1.82,-3.06,4
-0.13,0.98,-0.09,8.79,0.61,24.41,19.17,-34.95,-24.87,3
-0.99,-0.08,-0.17,5.49,-3.3,2.32,-7.24,7.52,-9.83,4
-0.99,-0.13,-0.09,1.22,0.37,50.05,-6.98,6.2,-18.77,4
1.01,-0.28,-0.07,17.76,1.71,58.84,43.32,-6.92,1.44,5
0.03,-0.05,-1.01,3.05,-3.42,1.53,23.91,-20.36,12.17,2
-0.99,-0.04,0.02,2.75,-1.53,2.56,-7.41,-20.8,-13.94,4
-0.92,-0.03,-0.36,13,16.97,-5.37,-9.06,3.54,-10.71,4
-1.02,0.09,0.06,11.96,6.65,10.68,-8.8,3.05,-19.29,4
-0.36,-0.18,-0.95,-29.17,-4.03,-3.85,16.6,-18.09,12.78,2
-0.97,0.06,-0.31,10.99,36.13,18.19,-10.24,0.81,-14.14,4
-0.21,0.95,-0.08,0.12,-2.32,-0.24,17.9,-35.02,-24.69,3
-0.05,0.03,-1.01,4.76,-2.81,1.34,21.64,-21.7,11.56,2
-1,0.09,0.05,12.63,14.04,-4.82,-9.03,0.24,-9.25,4
-1,-0.04,-0.1,3.48,-2.08,0.18,-9.07,-9.86,-24.8,4
-0.01,-0.01,-1.02,3.97,-2.08,1.34,22.99,-21.57,11.02,2
0.24,0.27,-0.93,4.21,-0.18,2.93,29.31,-29.65,6.79,2
-0.02,0.48,0.86,3.78,-3.17,0.79,23.68,-12.62,-42.33,1
0.09,0.01,0.99,6.16,-13.67,-1.65,23.19,3.31,-39.1,1
0.24,-0.13,-0.97,6.84,-3.66,1.22,28.7,-18.16,10.16,2
0.06,-0.02,0.99,11.05,-16.3,2.81,24.69,2.56,-40.04,1
-1.01,-0.02,0,-20.14,7.51,-13.55,-8.04,6.92,-18.36,4
-0.05,0.03,-1.01,4.15,-2.81,1.46,21.8,-21.95,12.01,2
0.95,-0.05,0.15,-1.59,-23.74,-2.5,46.18,-11.61,-6.21,5
-0.09,0.04,0.99,-5.98,5,1.65,19.84,1.66,-40.38,1
0.98,0.06,0.07,5.86,-3.3,2.44,45.68,-2.27,-6.95,5
-0.2,-1.01,0.05,0.43,17.4,-0.55,17.03,18.58,-4.35,3
0.01,-0.03,-1,55.91,0.73,-0.85,22.05,-20.87,11.9,2
0.13,-0.11,-1.02,-3.17,-19.84,1.4,27.01,-19.71,12.16,2
-0.01,0.1,1,3.05,5.25,0.73,21.03,0.77,-40.88,1
-0.02,0.38,-0.93,4.7,-2.62,0.79,21.29,-29.03,4.72,2
-0.35,-0.06,-0.95,5.37,-2.32,0.92,15.36,-21.75,11.34,2
-0.99,0.02,0.1,3.23,-1.89,2.5,-7.68,-5.77,-5.21,4
0.99,0,0.09,0.92,-13.85,-2.44,45.45,-13.35,-4,5
-0.97,-0.1,0.04,10.74,-6.53,2.75,-10.33,-16.26,-10.6,4
-1,-0.08,0.1,9.34,7.32,-9.77,-7.39,7.12,-19.81,4
0.01,-0.05,-1.01,7.02,-2.69,1.46,23.38,-19.8,12.01,2
-0.36,0.19,-0.94,6.65,-5.55,7.02,14.17,-28.21,7.76,2
-0.03,-0.8,-0.63,3.66,-2.44,0.61,20.07,5.2,10.77,3
0.98,-0.07,0.02,5.37,-2.93,0.24,43.29,4.37,-11.35,5
0.97,-0.18,-0.05,2.08,-2.81,1.04,45.12,-9.67,-2.16,5
-0.23,0.11,0.96,2.81,-1.95,0.73,17.53,-1.1,-42.07,1
-0.07,0.04,0.98,2.38,8,-0.98,21.13,1.43,-40.48,1
-0.01,0.47,0.86,3.66,-3.91,0.92,23.85,-11.56,-41.67,1
0.99,-0.03,0.03,3.48,-3.85,1.28,45.43,-12.44,-2.28,5
-1,0.01,0.1,2.38,-1.46,1.34,-8.08,-5.91,-5,4
0.02,0.13,0.99,4.58,-2.81,1.22,22.84,-0.55,-41.35,1
0.9,0.12,-0.39,-28.5,17.7,-34.3,36.51,-1.99,3.96,5
0.96,0.25,0,49.8,-60.97,18.43,44.71,-12.07,-3.42,5
0.84,0.53,0.01,11.96,0.18,-13.06,40.69,-20.23,-0.74,5
-0.02,-0.01,1,3.91,-3.05,4.94,24.39,-0.52,-40.48,1
-0.86,0.34,-0.4,30.46,17.88,-27.65,-10.63,-6.02,-9.31,4
-0.1,-0.08,0.98,-20.94,-18.98,2.81,20.58,3.33,-37.78,1
0.07,0.97,-0.03,5,-1.28,-10.99,23.68,-34.52,-26.06,3
0.97,-0.25,-0.03,7.87,-3.72,-2.38,44.76,-7.15,-2.12,5
-0.09,0.06,-1,31.92,-3.78,1.34,21.22,-23.55,11.38,2
0.02,0.25,-0.96,30.15,-5.68,1.65,23.19,-27.44,7.73,2
0.09,-0.13,-0.98,13.31,-15.93,5.55,25.21,-19.35,12.9,2
0.65,-0.53,0.59,21.73,7.45,-12.08,43.23,3.34,-19.31,5
-0.89,-0.34,0.18,6.53,-1.46,10.62,-1.9,11.91,-24.11,4
0.03,-0.02,0.98,-3.48,-2.32,5.13,20.91,3.45,-38.75,1
-0.08,0.1,0.99,-41.81,-15.69,6.9,20.52,0.09,-39.75,1
-0.1,0.99,0.04,-0.67,-4.82,18.86,22.51,-33.75,-26.34,3
-0.89,-0.04,-0.45,13.49,12.76,-14.89,-8.57,4.33,-8.94,4
0,0.93,0.29,15.26,-5.25,11.9,22.99,-28.67,-33.06,3
-0.9,0.35,0.02,13.79,19.23,-16.72,-11.29,-5.4,-21.13,4
0.06,0.04,1,30.82,-71.11,13.06,23.75,1.73,-39.39,1
-0.87,0.26,-0.42,21,14.22,-26.43,-10.3,-4.06,-8.09,4
-0.02,-0.01,1,4.27,-2.99,2.44,22.67,1.37,-39.47,1
0.82,-0.27,-0.52,-12.82,5.55,32.35,33.54,-1.44,8.37,5
-0.15,-0.24,-0.99,-91.43,-7.63,14.89,19.18,-15.23,14.47,2
0.24,-0.93,0.35,-3.91,-3.6,-0.06,27.69,17.57,-11.88,3
0.02,0.09,0.99,4.82,-2.5,2.01,21.94,1.6,-40.26,1
-0.98,-0.1,-0.02,43.52,-17.52,44.92,-7.3,6.75,-17.85,4
-1,0.06,0.07,-9.83,-29.54,-4.33,-7.58,1.42,-22.61,4
-0.99,-0.03,-0.22,14.16,15.01,4.88,-9.79,3.7,-15.71,4
-0.01,0.9,-0.41,-16.05,5.8,7.02,23.77,-37.35,-14.62,3
-0.07,0.11,0.98,28.08,-20.57,3.6,22.42,-1.29,-41.22,1
-0.96,0,-0.35,17.64,16.48,-5.25,-9.58,3.96,-11.77,4
-0.99,-0.06,-0.13,8.48,-0.06,1.34,-10.36,-10.64,-22.38,4
-0.12,0.04,-1,30.94,-8.97,3.36,20.81,-23.08,9.66,2
-0.04,0.98,-0.15,-9.22,-0.85,-2.87,21.23,-35.21,-22.68,3
0.99,-0.11,0.06,2.32,-1.04,1.34,45.78,-11.1,-4.36,5
-0.04,-0.78,-0.63,12.39,-0.92,0.61,20.86,4.49,11.79,3
-0.93,-0.37,-0.03,-3.97,-20.08,-7.57,-2.62,12.77,-16.43,4
0.85,-0.47,0.22,0.37,-3.91,-0.18,45.86,-2.39,-9.27,5
-0.39,-0.9,0.28,9.95,0.49,-2.01,13.38,19.07,-10.96,3
-0.04,0.05,0.98,5.07,13.37,-1.28,21.79,1.16,-40.17,1
-0.99,-0.07,0.01,6.41,-1.28,1.65,-6.68,-20.34,-12.77,4
-0.99,0,0.1,3.36,3.23,3.36,-7.21,-6.1,-5.29,4
-0.99,0.24,-0.07,6.65,-3.78,-0.98,-10.93,-5.16,-20.65,4
-1.01,-0.06,0.02,3.48,-3.05,4.09,-6.4,-20.46,-12.41,4
-1,-0.06,0.04,8.36,-2.38,-2.69,-10.83,-15.59,-9.7,4
0.86,0.33,0.37,-8.54,26.67,-3.3,45.74,-19.67,-12.12,5
-1.01,-0.03,-0.07,4.7,-3.66,1.65,-9.11,-10.31,-24.98,4
-0.96,-0.31,-0.11,-6.53,-19.29,-14.53,-4.46,11.93,-14.94,4
0.17,0.03,-0.99,-33.39,-6.23,0.18,25.2,-22.68,10.31,2
0.8,-0.24,-0.54,-63.78,90.58,-78.74,45.12,-9.74,-7.9,5
0.26,-0.95,0.22,4.39,-4.58,-3.3,27.99,17.59,-7.48,3
0.05,0,1,2.2,-2.75,1.34,22.6,3.61,-38.61,1
0.86,-0.23,0.45,71.78,66.65,-14.22,46.41,-6.56,-15.27,5
-0.92,-0.14,-0.38,2.87,-4.76,4.88,-6.68,7.07,-10.27,4
0.82,-0.13,-0.54,-6.59,24.72,-7.08,33.03,-9.06,10.44,5
0.95,-0.09,0.35,-46.26,51.88,-47.24,38.16,-5.2,-34.8,5
-1.01,-0.09,0.08,3.54,-3.36,-0.55,-10.49,-15.44,-10.34,4
-0.97,0.26,0.06,-11.11,-23.01,1.59,-8.73,-4,-22.17,4
0.83,-0.53,-0.16,4.03,-3.42,-10.86,40.23,0.9,1.54,5
-0.12,0.03,0.98,5.31,-3.23,1.59,19.27,1.86,-41.19,1
-0.02,-0.88,-0.53,-5.86,-3.3,2.2,21.92,7.62,9.2,3
-1.01,-0.13,0.1,68.66,-4.88,2.14,-9.08,-16,-10.99,4
-0.99,-0.09,-0.16,4.94,-2.56,0.67,-7.39,7.68,-10.44,4
-0.99,-0.09,-0.16,5,-2.32,0.43,-6.98,7.91,-10.42,4
0.98,-0.08,0.2,0.67,-25.7,3.36,45.7,-10.74,-3.12,5
-0.93,-0.28,-0.29,-36.01,-40.41,-13.79,-3.71,10.9,-11.39,4
0.06,0.01,0.99,3.48,-2.81,0.85,22.66,3.11,-39.64,1
0.07,0.98,-0.07,3.11,-3.66,1.16,23.89,-34.89,-25.06,3
-0.18,0.95,0,5.92,-15.44,-1.65,18.71,-34.77,-26.03,3
0.01,-0.04,-1.01,4.21,-3.17,2.08,23.62,-20.52,12.35,2
-0.19,0,0.97,4.09,-4.58,2.38,18.2,2.33,-40.67,1
0.11,0.43,-0.89,5.92,8.91,13.79,26.71,-31.41,3.39,2
0.13,0.44,0.85,-21.73,17.33,-6.29,27.14,-10.34,-41.35,1
0.04,-0.79,0.63,-13.12,-15.69,-7.93,23.43,17.91,-20.42,3
0.99,0,0.05,4.88,0.24,-0.24,45.79,-13.35,-3.36,5
-0.08,0.97,0.1,0.55,-12.08,-6.1,21.44,-32.51,-28.41,3
-0.35,-0.06,-0.95,4.94,-4.7,2.26,15.1,-21.03,10.66,2
-0.02,-0.96,-0.29,-7.2,-2.75,2.62,21.02,13.04,4.82,3
0.79,-0.01,-0.64,9.28,-17.94,-3.23,34.03,-13.83,9.58,5
0.21,0.96,-0.02,5.74,10.01,0.37,28.22,-33.31,-27.61,3
0,0.98,-0.11,3.97,-3.23,1.46,22.94,-35.03,-23.9,3
-0.02,-0.35,0.93,1.71,-2.99,1.22,21.68,10.23,-34.7,1
0.92,-0.32,0.25,6.23,-7.08,-11.47,46.61,-5.33,-8.92,5
-1,-0.06,0.02,4.7,-2.56,3.42,-6.53,-20.42,-13.84,4
-0.01,-0.02,1,4.46,-3.05,2.38,20.5,4.17,-39.89,1
-0.01,0.09,-1.01,2.69,-3.42,2.2,22.86,-24.52,9.61,2
-0.99,-0.12,0.06,138.55,6.35,-10.74,-10.39,-10.68,-6.91,4
0.08,-1,0.19,14.22,-10.01,2.2,24.04,19.03,-7.24,3
0.2,0.08,0.96,4.39,-4.09,1.1,29.77,-1.61,-39.23,1
-0.02,-1.01,-0.05,-0.49,-4.15,2.38,20.2,17.43,-0.81,3
0.04,-0.84,0.57,-13.18,-2.99,3.05,23.4,18.3,-18.04,3
0.99,-0.03,-0.03,1.77,-5.07,-0.31,45.34,-20.7,-10.08,5
0.81,0.03,0.57,5.19,-1.53,1.4,46.36,-13.85,-18.36,5
0.2,0,-0.98,5.68,-10.99,2.99,28.63,-21.85,10.34,2
-0.01,-0.02,1,3.72,-3.23,2.38,23.82,-0.55,-40.27,1
0.02,-0.05,-1.01,2.32,-3.05,0.79,23.97,-20.31,12.02,2
-0.01,-0.01,1,4.21,-3.05,1.46,21.5,3.7,-38.7,1
-1,-0.03,-0.08,6.53,-3.36,1.1,-8.63,-9.8,-25.95,4
-0.03,-0.85,-0.48,40.28,-2.14,-1.53,21.97,6.97,7.52,3
-0.83,-0.46,0.34,13.61,3.3,12.7,2.64,14.03,-25.61,4
-0.02,-0.01,0.99,5.25,-3.54,1.83,22.39,2.08,-39.73,1
-0.88,0.08,-0.5,3.48,-17.4,0.92,-7.95,0.15,-7.98,4
-0.19,-0.18,-0.98,0,-31.01,4.33,17.9,-17.05,13.05,2
0.32,-0.06,-0.95,28.56,-4.21,3.11,32.97,-21.92,9.9,2
0.11,0.97,-0.21,-2.32,-5.55,37.72,26.5,-34.83,-21.13,3
-0.01,0.08,-1,4.09,-2.87,1.4,24.16,-24.66,10.71,2
-0.99,-0.09,-0.16,5.07,-2.08,0.55,-7.04,7.63,-10.56,4
-0.02,-0.01,1,4.09,-2.99,1.34,21.31,3.5,-40.34,1
-0.02,-0.36,0.93,0.79,-3.05,1.34,21.92,10.38,-34.08,1
-0.96,0.03,0.3,7.81,1.34,29.3,-7.28,4.64,-22.88,4
-1.01,0.05,-0.15,-6.65,-3.66,3.66,-9.42,1.81,-21.09,4
-0.07,0,0.99,2.5,-1.04,1.65,20.91,2.75,-39.84,1
-0.02,0.03,0.99,4.39,-2.99,0.79,21.68,2.91,-39.62,1
0.04,0.83,-0.2,-3.66,-0.24,19.23,25.29,-34.67,-22.46,3
0.99,-0.05,0,38.57,-9.22,0.79,47.2,-5.94,-2.84,5
-0.04,-0.03,1,3.91,-8.24,0.49,21.55,1.73,-39.66,1
0.03,-0.05,-1.01,2.26,-3.6,1.34,23.78,-19.64,10.64,2
0.23,-0.12,-0.99,-18.19,-4.09,3.11,29.24,-19.06,11.83,2
-0.02,-0.01,0.99,4.09,-2.99,1.46,21.34,3.22,-38.67,1
-0.35,-0.06,-0.95,3.17,-3.3,2.5,14.9,-20.69,11.19,2
0.12,0.04,1,-3.91,21.42,-1.95,25.79,2.32,-39.51,1
0.79,-0.5,-0.34,2.56,-3.36,-0.06,37.22,-1.01,5.69,5
-0.98,0.22,-0.14,-7.63,0,1.46,-10.41,-1.42,-8.97,4
0.77,0.02,0.62,3.17,-2.08,1.95,46.47,-13.05,-19.38,5
-0.02,0.39,-0.92,7.26,-2.38,0.37,22.23,-30.29,3.94,2
-0.02,0.38,-0.93,3.48,-3.36,1.71,21.98,-29.65,4.32,2
-0.01,-0.01,0.99,4.09,-2.93,1.65,20.3,3.39,-39.5,1
-0.02,0.01,0.99,5.49,-3.36,1.34,17.96,5.16,-40.14,1
-1,-0.11,0.07,18.31,35.16,19.47,-6.29,6.04,-22.14,4
0.11,-0.1,0.99,7.2,-8.67,2.2,24.87,5.11,-37.59,1
0.22,-0.13,-0.98,12.08,0.06,4.09,28.22,-18.46,10.93,2
0,0.03,-1.03,4.15,-12.39,3.97,22.22,-21.59,11.16,2
0.19,0.92,-0.34,21.06,-4.39,-4.09,27.67,-34.02,-17.83,3
-0.03,-0.8,-0.62,2.87,-4.7,1.22,20.01,4.71,11.21,3
1,0.04,0.15,13.49,-7.81,3.36,42.88,-3.93,-28.27,5
-0.19,-0.09,-0.99,3.3,2.08,0,18.04,-18.35,12.89,2
0.06,-0.93,0.42,43.88,0.49,-0.92,23.03,18.79,-14.2,3
-0.9,-0.45,-0.12,11.47,-2.01,17.03,-1.07,14.5,-16.37,4
-0.08,-0.14,0.98,3.48,-16.78,-0.18,19.96,6.03,-38.21,1
-0.34,-0.92,0.26,4.33,-3.23,1.28,12.19,17.76,-9.11,3
-1.04,0.1,0.15,10.5,-16.11,15.69,-8.95,1.89,-20.7,4
-0.95,0.09,-0.31,-2.69,-29.85,1.22,-10.05,0.1,-13.64,4
-1,0.02,0.03,18.68,-5.98,0.61,-6.77,-7.09,-3.96,4
0.12,0.98,-0.12,6.35,-3.05,-1.22,26.42,-34.52,-24.67,3
-0.05,-0.01,1,1.53,-12.88,0.92,20.61,2.62,-39.36,1
0.21,0.48,0.84,9.77,1.28,3.42,29.83,-11.85,-40.39,1
-0.34,-0.06,-0.96,3.42,-3.17,2.01,15.61,-21.35,12.06,2
-0.01,0.96,0.18,-11.9,-0.85,1.4,23,-31.05,-31.47,3
0.98,-0.09,0.02,-0.67,-2.38,3.42,42.92,4.66,-11.39,5
-0.05,-0.05,1,-1.04,-9.34,4.7,21.4,2.39,-39.97,1
0.03,0.03,-1.01,4.46,-4.7,2.2,23.79,-23.35,11.49,2
-0.36,-0.06,-0.94,2.62,-1.04,1.59,15.26,-21.84,11.4,2
0.11,0.76,-0.62,-26.61,3.36,6.29,22.63,-37.4,-9.53,3
0.98,-0.02,-0.21,-23.74,48.52,-6.29,41.8,-12.04,3.17,5
-0.9,-0.1,-0.45,-10.68,-31.37,-36.99,-6.51,6.12,-7.75,4
-0.03,0.09,0.99,3.78,-2.75,1.71,21.02,0.62,-41.49,1
0.1,0.78,-0.64,8.48,8.24,2.2,22.56,-37,-9.12,3
0.78,-0.59,-0.15,5.07,-4.39,2.81,39.27,2.39,1.51,5
0.78,-0.62,-0.17,6.41,-3.85,7.93,39.27,2.08,2.58,5
-1.01,-0.16,0.07,5.62,-41.44,36.19,-5.93,6.95,-21.58,4
0.21,0.51,0.81,2.01,-6.84,9.03,28.88,-13.44,-41.98,1
0.04,0.82,-0.56,36.93,26.49,14.95,21.3,-37.61,-11.27,3
0.11,0.03,0.97,-20.63,14.89,1.04,27.21,1.68,-40.1,1
0.93,-0.36,-0.12,-8.73,-13.18,53.22,42.6,-4.43,0.92,5
0.98,0.05,0.1,-3.36,-3.05,5.8,45.52,-2.09,-6.27,5
-0.97,0.14,0,-13.49,-2.5,2.32,-9.28,-8.98,-3.26,4
1,0.04,-0.03,18.01,-2.14,1.22,44.38,-16.46,-26.11,5
1,-0.06,0.03,54.57,-1.77,-0.24,45.41,0.01,-6.56,5
0.16,0.99,0.1,13.43,2.2,8.48,30.05,-31.51,-28.2,3
-0.95,0.11,-0.13,-51.21,-11.29,25.82,-9.97,3.21,-17.74,4
0.03,0.1,1,1.89,20.87,-1.34,24.15,0.34,-39.5,1
0,0.14,0.99,77.94,0.43,-7.26,23.05,-1.01,-40.66,1
0.03,0.09,0.99,4.82,-4.09,2.2,21.84,0.92,-40.16,1
0.24,-0.12,-0.97,5.43,-4.03,1.22,28.22,-18.32,11.67,2
-0.96,-0.05,0.18,-6.9,-5.49,-21.97,-7.53,6.13,-22.07,4
0.04,0.02,-1.02,3.66,-2.44,2.81,23.9,-21.74,11.72,2
-0.94,0.14,0.04,165.89,5.25,-12.39,-8.75,2.61,-21.04,4
-0.02,0.08,-1,3.36,-3.11,1.59,23.13,-24.24,10.57,2
-0.31,-0.92,0.24,0.37,-3.85,-2.44,12.38,18.19,-10.11,3
0.07,-0.15,-1,6.16,-2.14,0.06,25.05,-18.42,11.99,2
-0.11,0.08,0.99,-29.91,4.27,1.04,22.22,-2.03,-41.47,1
0.99,-0.12,0.05,2.38,-2.38,1.95,46.06,-11.56,-4.39,5
-1,0,0.1,4.7,-3.85,1.59,-7.96,-5.87,-6.04,4
-0.79,0.41,0.42,15.81,-10.07,31.86,-4.75,-7.79,-33.15,4
0,-0.05,-0.97,0.12,24.84,-2.93,23.27,-20.75,11.13,2
-1.04,-0.02,0.05,-7.14,-6.47,8.97,-8.92,4.85,-19.34,4
0,-0.02,-1.01,5.31,-2.56,2.14,23.94,-21.89,10.25,2
0.97,0.1,-0.25,8.79,6.77,1.16,41.19,-16.21,4.13,5
-0.01,-0.01,0.99,3.91,-3.05,2.5,22.47,1.89,-39.6,1
0.96,-0.26,0.07,-5.62,-27.28,-1.77,45.35,-6.76,-5.04,5
-0.16,-1,0.08,1.28,-2.08,-13.98,20.65,18.4,-5.71,3
0.05,0.15,1.03,4.88,16.11,0.49,23.49,-1.09,-40.73,1
-0.06,0.93,0.31,4.15,-2.32,20.32,21.98,-28.32,-33.69,3
0,0.04,-1.01,4.39,-2.99,1.53,23.43,-23.71,11.02,2
-0.12,0.07,0.99,12.88,5.37,0.67,19.31,0.68,-39.33,1
0.06,-0.1,-1,12.88,-1.22,2.14,23.38,-19.14,11.79,2
0.99,0,0.01,9.77,0.61,3.36,44.19,-2.61,-23.58,5
0.99,-0.05,0.07,70.43,-2.62,-2.01,45.28,-1.28,-22.77,5
0.04,-0.98,0.19,37.11,-5.19,-1.28,22.3,18.75,-7.85,3
0.97,-0.19,-0.04,4.46,-2.01,0.98,44.32,-8.92,-1.59,5
0.98,-0.18,0.12,43.7,49.93,-13.18,44.57,-8.68,-6.29,5
-0.95,-0.04,0.04,65.37,29.3,23.19,-10.07,-2.61,-4.02,4
0.26,-0.95,0.28,-6.9,-2.56,13.37,27.47,17.32,-9.79,3
-0.99,-0.05,0.02,5.49,-3.05,6.59,-6.84,-20.69,-14.89,4
0.88,-0.36,-0.31,0.98,-13.49,5.8,40.66,-5.65,4,5
-0.99,-0.07,0.22,14.53,17.88,10.68,-7.14,6.65,-22.17,4
0.05,-0.86,0.52,-9.58,-3.66,-0.55,23.21,18.7,-17.96,3
1,0.06,0.13,7.87,-6.59,3.91,45.89,-13.21,-3.96,5
-0.99,0.01,0.11,6.1,-3.66,1.1,-8.02,-6.01,-4.93,4
-0.04,-0.14,0.99,66.28,-10.93,-8.91,20.5,5.53,-38.46,1
-0.34,0.25,-0.92,-31.43,6.23,5,14.43,-27.59,6.9,2
0.87,0.45,-0.03,17.21,15.87,-26.18,40.76,-20.03,-0.16,5
-1.01,0,0.04,74.34,4.27,-0.18,-8.79,-10.78,-3.85,4
0.05,0,0.99,5.31,-4.09,1.22,22.58,2.99,-39.95,1
-0.05,-0.53,-0.9,33.14,-18.37,9.83,21.46,-7.8,13.77,2
-0.97,0.21,-0.12,6.47,1.34,38.57,-10.51,-1.45,-17.35,4
0.86,0.01,0.5,-7.51,-49.13,-16.36,46.9,-13.85,-16.14,5
-0.98,-0.01,0.08,-52.55,4.76,-5.31,-12.05,-0.84,-5.11,4
-0.04,0.53,-0.86,12.51,-8.79,4.76,22.86,-34.31,0.52,2
0.8,0.04,0.53,2.56,-3.85,3.17,46.77,-13.77,-17.63,5
0,-0.37,-0.95,-8.18,-3.11,1.71,22.42,-11.77,13.67,2
-0.02,0.38,-0.93,3.23,-2.5,0.98,21.51,-28.7,4.57,2
-0.24,-0.97,0.12,-9.4,3.48,-3.17,17.49,18.76,-7.06,3
-0.34,-0.92,0.26,6.1,-2.87,1.28,12.28,18.12,-10.22,3
-0.95,0.04,0.3,11.17,23.62,0.49,-6.96,4.09,-26.49,4
0,0.98,-0.12,1.16,-3.11,2.14,22.97,-35.44,-23.25,3
-0.08,0.19,0.97,1.46,1.22,1.65,22.19,-3.96,-41.44,1
-0.15,0.97,-0.09,-4.7,9.4,1.77,18.84,-35.14,-24.1,3
-1.01,-0.01,-0.07,-71.66,-6.59,5.68,-8.46,6.14,-10.8,4
-0.05,0.05,1.04,8.3,38.33,2.81,22.16,-0.66,-40.16,1
-0.04,0.42,0.9,8.48,-3.3,1.04,21.74,-9.58,-43.1,1
-0.02,0.47,0.86,3.54,-2.5,0.98,23.68,-12.18,-42.49,1
-0.02,0.03,0.99,9.83,-4.39,-0.18,21.39,2.22,-39.1,1
0.05,0,1,3.66,-1.1,8.18,20.89,3.94,-39.38,1
0.97,0.06,0.05,-4.76,-3.11,5.55,44.92,-2.48,-6.54,5
0.92,-0.29,0.26,6.16,-13.24,-7.69,46.39,-5.3,-8.47,5
0.02,0.13,0.98,4.58,-2.69,1.34,22.94,0.15,-41.19,1
0.9,-0.25,0.3,20.39,-5.98,-11.96,47.58,-6.87,-10.86,5
-0.08,0.98,0.04,3.36,-3.3,1.53,19.29,-34.03,-27.42,3
-0.21,0.93,-0.27,11.29,18.55,3.11,16.46,-35.83,-18.95,3
0.25,0.95,-0.02,4.76,-1.95,0.85,28.11,-30.25,-25.45,3
0.26,-0.93,0.31,16.97,-10.99,-1.22,30.57,16.94,-11.89,3
0.04,-0.03,-0.99,-16.54,-6.9,6.04,24.1,-21.24,11.63,2
0.01,0.13,0.98,-15.5,-15.99,12.02,22.28,-0.4,-39.9,1
-0.01,-0.01,1,3.85,-3.36,1.04,21.33,3.39,-39.67,1
-0.01,0.09,-1,4.03,-2.93,1.4,22.96,-24.26,10.08,2
-0.32,-0.8,0.34,-6.04,-30.09,53.47,14.18,18.9,-10.75,3
-0.99,-0.02,0.1,24.96,-3.42,4.58,-12.06,-5.81,-3.85,4
-0.01,0.09,-1,4.33,-2.75,1.4,23.99,-25.37,9.4,2
0.01,-0.14,0.99,-5.74,-8.18,0.92,22.18,6.31,-38.12,1
-0.89,0.01,0.44,-6.47,1.16,-20.51,-4.81,4.15,-30.19,4
0.01,-0.34,-0.95,7.14,-2.87,0.79,22.01,-12.17,14.81,2
0.02,0.12,0.98,6.1,-1.4,1.34,23,-0.21,-41.26,1
0.99,-0.12,0.03,3.05,-2.56,3.05,42.92,4.48,-11.35,5
-1,0.04,0.12,-20.57,-26.31,-27.34,-8.25,2.94,-21.35,4
0.74,-0.34,0.56,-5.19,-3.17,22.77,45.95,-1.89,-18.92,5
-0.01,-0.01,1,4.33,-2.56,1.65,21.59,3.44,-38.26,1
-0.04,-0.78,-0.64,2.14,-2.99,2.14,21.67,3.53,10.57,3
-0.02,0.08,-1.01,3.78,-2.81,1.4,23.32,-24.55,9.94,2
0.98,0.06,0.1,4.58,-2.87,2.44,45.36,-2.61,-7.48,5
-0.16,0.97,0.16,-24.48,4.33,10.01,19.53,-31.73,-30.33,3
-0.02,0.02,-1.03,4.03,-11.78,0.98,22.9,-22.75,11.54,2
-0.99,-0.15,-0.01,34.06,-5,-8.97,-9.19,-10.14,-25.9,4
-0.03,-0.8,-0.64,7.08,-2.62,-0.12,21.57,4.24,10.69,3
-0.38,0.19,-0.91,2.69,-0.43,5.92,11.16,-27.39,6.43,2
0.1,1.03,-0.13,6.1,-2.75,-3.54,25.96,-35.63,-23.39,3
-1,-0.03,-0.09,4.21,-0.98,1.65,-9.02,-10.51,-24.1,4
0.19,0.16,0.98,-21.24,-7.02,3.11,27.75,-1.27,-40.31,1
0.24,0.53,0.79,-6.04,1.1,0.85,29.92,-13.33,-41.39,1
-0.01,0.93,0.3,5.07,0.73,3.78,23.72,-29.71,-33.25,3
1,-0.07,0.06,78,-6.23,-3.23,47.17,-6.87,-2.92,5
0.23,0.49,0.82,0.92,-3.54,0.24,29.22,-11.82,-41.05,1
1,0,0.02,12.82,5.74,2.2,43.96,-2.62,-24.44,5
-0.04,-0.82,-0.59,30.7,-3.72,0.49,20.3,5.59,9.83,3
-0.02,-0.01,0.99,3.6,-2.44,0.85,18.16,6.1,-39.29,1
-0.01,0.08,-1.01,2.26,-2.38,1.4,23.84,-24.17,10.05,2
0.2,0.95,0.14,45.04,-22.89,0,26.35,-30.7,-31.41,3
0.96,-0.26,-0.04,2.56,-1.83,3.05,45.42,-8.22,-2.33,5
-0.07,-0.01,-1.01,-7.51,34.18,4.94,21.45,-21.28,11.35,2
-0.24,-0.02,-0.98,3.78,-3.17,2.08,17.55,-20.36,11.62,2
0,0.89,-0.44,8.36,-4.64,-4.64,22.27,-35.71,-14.7,3
0.05,-0.98,0.32,-5.92,-2.32,2.32,22.6,19.09,-10.03,3
0.05,-0.01,-1.01,7.57,-2.69,-0.06,24.78,-21.2,11.3,2
0.02,0.04,-1.01,4.03,-3.78,1.77,23.39,-22.9,10.62,2
0.2,0.08,0.97,8.24,-3.36,0.79,29.82,-1.04,-39.82,1
-0.05,-0.01,1,-7.81,-3.48,0.85,22.17,1.39,-40.89,1
-0.01,-0.04,-1.03,68.97,1.04,-1.1,23.06,-20.53,11.43,2
0.05,-0.08,-1.01,15.44,1.1,-0.92,24.04,-19.03,12.67,2
-0.02,0.08,-1.01,4.39,-2.69,1.65,23.49,-24.12,9.97,2
-0.89,-0.3,-0.39,16.11,13.06,28.81,-4.94,10.3,-11.49,4
0.03,0.83,-0.54,28.63,-13.55,-2.75,26.26,-36.73,-10.47,3
0.02,-0.03,-1.01,2.99,-2.38,1.16,23.69,-20.43,11.94,2
0.14,-0.02,1,22.22,-2.44,-1.34,25.23,3.88,-37.77,1
-0.99,0,0.1,4.88,-1.22,1.83,-7.34,-6.08,-4.7,4
-0.13,0.97,-0.15,-10.86,8.36,0.24,19.68,-35.57,-23.05,3
0.98,0.04,-0.2,-73.12,-87.34,84.72,41.42,-7.69,1.64,5
0.14,0.9,-0.38,13.67,-12.57,-19.35,28.26,-35.39,-15.15,3
1.01,-0.05,0.05,31.92,-8.91,-11.54,42.82,4.82,-14.05,5
0.06,0.03,0.99,9.22,-4.27,-0.49,25.56,-0.34,-39.92,1
-0.01,0.98,0.11,-12.63,-3.91,2.87,23.19,-31.99,-29.79,3
-0.08,-1,0.28,16.66,-3.23,-33.63,18.9,19.36,-9.75,3
-0.96,0.04,0.33,11.9,-36.62,31.8,-5.86,2.31,-29.06,4
0.98,0.1,0,3.78,-2.69,1.65,45,0.95,-12.49,5
0,-0.17,0.98,8,-10.19,7.63,23.13,5.26,-37.74,1
-0.02,0.01,-0.99,9.16,-1.77,-7.51,23.41,-22.01,12.82,2
0.2,0.97,0.05,17.76,8.73,3.66,30.18,-31.71,-27.62,3
0.99,0.09,-0.01,29.3,-5.92,4.52,44.73,0.37,-13.11,5
-1,0.02,0.02,-68.18,-9.52,4.39,-8.26,-8.15,-2.91,4
0.29,-0.41,-0.88,-1.77,-4.15,1.46,27.21,-9.88,12.61,2
-0.28,0.92,0.19,5.25,-10.01,-14.83,19.38,-31.93,-28.76,3
1,-0.08,0.05,3.17,-2.75,2.14,42.82,4.15,-11.49,5
0.99,-0.23,-0.25,15.81,-12.82,-35.89,42.61,-6.54,1.87,5
0.21,-0.01,-0.98,-2.62,-7.51,2.14,28,-21.67,11.36,2
0.83,0.11,-0.53,1.4,-9.7,-4.82,34.46,-13.66,9.95,5
-0.02,-0.96,0.31,15.44,-6.65,-26.73,20.78,18.99,-10.39,3
0.11,0.17,1.04,43.03,-31.43,8.48,26.42,-3.04,-40.06,1
-1.02,-0.04,0.09,-44.01,-4.76,-0.73,-11.49,-1.73,-3.06,4
0.06,-0.85,0.5,29.3,-3.17,0.12,23.27,19.32,-18.04,3
0.24,-0.93,0.33,4.33,-3.3,-0.79,28.21,18.1,-11.65,3
-0.93,-0.2,-0.31,6.65,9.22,1.65,-5.9,8.94,-12.08,4
0.77,0.02,0.63,5.07,-2.93,0.43,46.42,-13.29,-20.09,5
0.17,0.54,0.82,11.47,-13.06,8.73,28.3,-12.82,-41.58,1
-0.99,0.01,0.1,7.39,-3.6,1.53,-7.92,-5.7,-4.57,4
-0.39,0.13,-0.92,-7.75,2.01,-1.65,10.52,-25.39,8.22,2
0.03,0.13,0.99,4.7,-3.23,1.53,23.29,-0.22,-40.36,1
-0.07,0.18,0.99,58.53,17.76,-5.25,20.69,-2.19,-40.61,1
0.96,0.09,-0.05,-21.12,-4.33,21.3,44.97,-22.52,-12.74,5
-1,-0.06,-0.08,-109.8,-6.53,7.2,-8.76,7.15,-13.67,4
-0.96,-0.09,0.29,14.1,20.57,6.96,-6.26,7.48,-22.69,4
-0.06,-0.38,-0.97,32.84,2.81,-7.32,21.74,-10.57,13.28,2
0,-1.02,0.01,9.52,-6.1,-1.59,20.14,18.1,-1.9,3
-0.96,-0.22,0.18,4.94,-10.31,-16.78,-4.39,8.94,-24.02,4
0.89,0.07,0.45,-2.01,21.61,-0.85,47.07,-13.72,-13.59,5
0.02,-0.12,0.99,-7.51,-9.95,3.36,21.9,6.35,-37.85,1
0.96,-0.2,-0.06,2.26,-3.05,2.99,44.73,-9,-2.48,5
-0.09,0.02,0.99,-6.71,-1.28,3.23,20.47,2.66,-39.92,1
0.99,-0.03,0.05,3.17,-1.89,2.01,45.02,-12.67,-4.11,5
-0.18,0.07,0.98,-2.87,0.12,-0.49,18.48,0.84,-40.28,1
-0.03,-0.01,1,7.75,6.29,-0.24,20.09,4.19,-39.48,1
0.03,-0.04,-1.01,3.85,-2.81,0.73,23.57,-20.26,12.11,2
0.98,0,0.1,10.44,-2.69,0,43.21,-5.88,-28.61,5
0.33,0,0.93,5.86,-8.18,2.01,29.65,3.39,-37.15,1
0,0.04,-1.01,3.66,-2.69,1.95,22.85,-23.03,11,2
-0.19,0,0.97,5.55,-4.15,2.26,18.35,2.67,-40.97,1
-0.12,0.97,0.01,4.33,-6.1,2.99,23.07,-34.23,-26.29,3
1,0.06,-0.01,14.53,-3.3,1.1,44.56,0.92,-12.74,5
-0.01,0.07,-0.99,10.5,-3.91,-1.28,23.5,-24.61,10.36,2
-0.1,0.98,-0.13,36.38,-9.16,1.1,21.42,-34.36,-22.86,3
-0.98,-0.02,-0.17,16.72,-20.39,0.49,-10.23,-9.17,-22.84,4
-0.97,-0.28,-0.17,15.87,-29.05,22.46,-4.31,9.85,-14.11,4
-0.22,-0.96,0.25,5.43,8.48,15.87,14.72,18.51,-9.35,3
0.82,-0.03,0.6,-11.47,-46.88,-17.82,47.42,-13.24,-17.27,5
0,0.98,-0.12,5,-3.42,1.16,22.41,-34.46,-24.15,3
0.27,0.93,0.01,-52.37,1.65,-6.29,30.69,-31.42,-25.99,3
-1.02,-0.04,0.02,-15.08,-0.18,-2.01,-7.07,-19.73,-13.46,4
0.99,-0.02,0.03,3.97,-1.65,-0.43,45.43,-11.58,-3.03,5
0.9,0.34,-0.2,-37.29,47.55,-41.08,39.59,-8.68,1.07,5
-1.01,-0.05,0.03,1.04,-3.91,6.77,-6.79,-20.85,-13.65,4
0.29,-0.9,0.39,15.26,-18.25,2.26,30.92,16.41,-12.04,3
-0.06,0.22,0.96,31.68,5.68,-2.14,21.72,-3.47,-41.7,1
0.17,0.34,0.91,-11.23,2.69,-0.98,27.04,-6.79,-42.15,1
-0.99,0.01,0.1,7.02,11.66,8.48,-7.12,-6.93,-4.14,4
0.36,0,0.93,4.27,-6.47,1.83,29.76,3.36,-37.56,1
0.06,0.18,0.98,3.6,31.74,-5.86,23.58,-2.34,-41.33,1
-0.03,-0.79,-0.63,2.14,-3.42,1.4,19.95,4.32,11.6,3
0.22,0.36,0.87,10.25,-4.7,-1.16,29.36,-7.86,-41.22,1
0.03,-0.04,-0.97,24.72,-2.62,1.22,23.99,-19.78,12.48,2
-0.01,-0.02,-1.01,-2.08,-2.01,2.93,22.63,-20.9,10.41,2
-0.02,0.48,0.86,3.42,-1.4,2.32,23.66,-12.48,-41.98,1
0.03,0.09,0.99,3.54,-2.75,1.22,22.56,1.48,-40.61,1
-0.26,-0.09,-0.97,0.24,2.81,1.04,17.09,-19.08,12.01,2
-0.98,-0.16,0,0.67,-2.93,3.48,-11.94,6.13,-2.66,4
-0.06,0.98,-0.1,5.68,-0.73,14.53,20.51,-34.46,-24.18,3
0.98,0.07,0.06,3.17,-4.94,3.23,44.7,-2.36,-7.48,5
0.82,-0.12,0.52,-1.04,-7.14,12.15,47.79,-8.22,-18.54,5
-0.97,0,-0.16,15.14,30.58,-10.13,-9.62,3.22,-17.63,4
-1,0.03,0.11,8,-4.15,1.65,-13.28,1.21,-5.44,4
-0.03,0.12,0.99,10.44,27.22,-2.01,21.63,-0.59,-39.9,1
-0.05,0.04,-1.03,-6.47,-9.64,11.23,22.77,-23.23,11.65,2
0.97,-0.18,-0.03,4.58,-2.56,0.98,44.87,-9.27,-2.27,5
0,0.92,0.29,5.31,-3.36,1.04,23.8,-29.72,-34.51,3
-0.02,0.03,1.01,7.02,2.56,-4.39,20.57,3.06,-39.65,1
0.89,0.1,0.4,63.96,-86.06,11.23,46.19,-3.88,-15.48,5
-0.02,0.47,0.86,2.93,-2.81,2.01,23.79,-12.33,-41.85,1
0.27,0.11,0.97,3.66,0.24,-1.4,28.63,-0.56,-38.83,1
0.03,0.11,0.98,3.54,-2.44,1.1,22.9,-0.15,-41.36,1
-0.19,-0.15,-0.97,-26.61,9.34,-4.76,17.94,-17.15,12.57,2
-0.04,0.41,0.9,-0.79,-1.71,1.59,21.34,-8.92,-42.04,1
-0.21,-0.96,0.26,18.07,-5.07,-21,15.32,18.55,-8.39,3
0.99,0.09,-0.02,6.23,-3.54,-1.46,45,1.64,-13.98,5
-0.25,-0.98,0.13,32.04,3.6,11.72,18.14,19.12,-8.39,3
-0.33,-0.92,0.27,2.93,-2.75,2.32,12.48,18.71,-9.34,3
-0.21,-1.03,0.08,-7.63,8.61,1.22,17.66,18.55,-4.59,3
-0.95,-0.16,-0.21,12.39,11.05,-42.3,-7.6,6.67,-15.73,4
-0.99,-0.09,-0.17,4.09,-2.81,1.83,-7.5,7.82,-10.03,4
-0.99,0.01,-0.04,9.83,-7.63,23.01,-8.4,-2.7,-25.68,4
0.85,-0.38,-0.38,0.31,-16.6,15.32,39.37,-5.69,6.13,5
-0.03,-0.14,-1,-9.64,-2.75,3.36,21.91,-17.96,13.09,2
-0.99,0.02,0.14,19.17,40.77,-1.4,-8.39,3.42,-23,4
-0.02,0.08,-1.01,3.6,-2.93,1.77,23.52,-24.13,10.53,2
-1,0,0.06,104.74,-2.01,-7.93,-9.22,4.37,-10.78,4
-0.99,-0.01,0,67.63,22.77,37.96,-8.47,3.94,-19.18,4
-1,0,0.02,11.35,-8.12,5.74,-8.89,5.11,-18.32,4
0.08,0.02,1,12.15,15.56,-0.61,24.58,1.61,-39.31,1
-0.99,-0.02,-0.07,4.82,-2.38,1.71,-8.68,-9.91,-25.5,4
-0.03,0.91,-0.39,-4.94,-4.7,0.55,20.84,-35.5,-14.55,3
-0.02,0.97,-0.19,-11.72,-5.25,1.77,21.57,-34.86,-21.04,3
-0.32,-0.92,0.26,-0.67,-2.87,3.17,12.79,18.41,-9.05,3
0,0.92,0.31,-3.72,3.91,1.65,23.65,-29.32,-35.42,3
1,0.03,0.06,28.99,-7.87,1.4,43.43,-8.14,-27.75,5
-0.98,-0.09,-0.16,4.21,-2.62,2.01,-7.4,7.86,-10.55,4
-0.03,-0.81,-0.64,1.46,-3.91,0.79,21.22,3.56,10.66,3
0.96,0.13,-0.19,6.16,5.62,0.49,41.17,-16.03,2.58,5
0.98,0.08,0.01,3.66,-3.3,0.24,44.84,0.72,-13.05,5
0.96,-0.14,-0.19,-31.19,65.8,28.38,43.29,-11.55,0.57,5
0.25,0.93,0.11,-18.13,-6.23,-2.08,30.31,-30.76,-28.77,3
-0.03,-0.24,-0.98,-18.43,-4.58,2.2,22.28,-14.75,14.05,2
0.07,0.98,-0.07,3.6,-2.87,1.04,23.91,-35.49,-25.22,3
-1,-0.04,-0.07,3.48,-1.71,2.69,-9.36,-10.13,-23.66,4
0.98,0.09,0.08,3.42,-3.42,3.11,45.31,-2.56,-6.91,5
0,0.98,-0.12,4.88,-2.87,0.98,23.02,-35.38,-23.45,3
-0.38,-0.91,0.27,15.08,1.95,-2.44,13.56,18.69,-10.66,3
0.97,-0.21,-0.05,4.21,-3.78,1.1,44.81,-9.02,-2.6,5
-1.01,0.19,-0.11,-11.9,-13.37,-17.15,-10.71,-3.6,-20.92,4
0.02,0.33,-0.96,3.66,22.89,7.57,24.33,-30.86,6.69,2
0.98,0.11,-0.17,2.87,13.92,-1.77,42.7,-16.42,1.06,5
0,-0.01,1,4.94,-3.3,0.31,21.47,3.06,-40.09,1
0.99,-0.12,0.07,3.05,-3.3,1.22,46.95,-10.46,-4.75,5
0.84,0.34,0.43,2.81,-5.19,18.31,46.48,-23.25,-14.01,5
0.99,0.06,0.01,8.12,-1.04,0.61,44.36,-13.96,-26.67,5
-0.09,-0.41,-0.91,-2.5,-2.99,2.14,21.06,-10.68,14.42,2
0.86,0.05,0.52,-41.75,23.44,-78.98,35.62,-5.57,-37.32,5
0.99,0.09,0,1.59,-2.01,1.95,44.68,0.21,-12.83,5
-0.99,-0.09,-0.16,4.76,-2.62,0.85,-7.18,8.4,-9.89,4
0.13,0.05,0.96,-6.53,10.44,1.34,27.65,0.45,-39.78,1
0.98,0.1,0.01,3.97,-2.5,1.71,44.58,1.32,-12.4,5
0.01,-1.01,-0.08,32.04,-2.44,-1.59,21.64,16.04,-1.09,3
-0.02,-0.08,-0.97,35.4,8.18,-3.6,23.11,-20.72,12.62,2
-1,0.01,0.19,-162.66,-9.28,-6.65,-8.02,-19.73,-12.57,4
-0.01,-0.01,0.99,4.03,-3.11,1.22,21.22,3.8,-39.65,1
0.08,0.98,-0.15,3.11,0.18,0.85,24.58,-35.5,-24.29,3
-0.41,-0.02,-0.94,-22.64,-1.83,0.73,10.77,-21.28,10.16,2
-0.99,-0.03,0.01,27.4,0.18,-0.31,-8.81,5.6,-18.6,4
-0.87,0.08,-0.48,2.62,-19.1,2.26,-8.86,0.1,-9.11,4
-1,-0.07,0.04,74.22,-10.19,-4.7,-8.41,-18.14,-14.42,4
-0.89,0.45,-0.17,-0.37,-8.36,5.13,-10.83,-10.25,-18.12,4
0.91,-0.18,0.28,26.06,-1.77,-7.87,47.39,-7.93,-11.17,5
0.14,0.89,0.36,10.07,-2.62,1.34,22.95,-26.23,-35.52,3
-0.02,-0.02,1,16.85,-2.69,6.16,20.92,2.71,-40.71,1
0.3,-0.95,0.26,32.84,-16.3,-3.91,31.08,16.17,-8.4,3
-0.22,-0.23,-0.95,1.95,-1.89,0.49,17.79,-15.26,14.29,2
0.37,0,0.92,4.82,-4.21,1.34,30.62,3.44,-36.6,1
0.2,0.07,0.96,6.16,-3.48,2.2,29.72,-0.96,-39.2,1
-0.03,0.93,-0.28,-3.48,-4.76,3.54,21.34,-34.88,-19.02,3
0.03,0.02,-1.01,8.42,-2.87,0.61,23.78,-21.19,11.44,2
-0.33,0.31,-0.9,-22.22,3.11,3.48,15.26,-29.03,5.35,2
0.05,0.01,1,4.03,-2.87,0.92,22.49,2.88,-38.9,1
-0.02,-0.71,0.71,4.88,-2.75,2.01,22.52,17,-24.23,3
0.99,-0.15,0.06,4.94,-3.05,0.31,46.24,-11.33,-4.35,5
0.23,-0.12,-0.97,2.62,-3.48,2.14,28.45,-18.44,11.43,2
-0.94,0.31,-0.01,-2.81,-0.18,-32.53,-11.25,-4.83,-19.8,4
0,0.94,0.2,28.69,-4.58,-1.95,22.07,-30.31,-32.73,3
-0.11,-0.07,0.98,-8.18,-10.19,0.24,21.02,3.53,-39.5,1
0.81,0.59,-0.05,6.23,-3.91,14.77,39.34,-25.12,0.28,5
-0.03,0,0.99,9.03,-5.31,-1.46,22.28,2.7,-38.85,1
0.79,0.57,-0.13,2.87,2.62,1.77,38.9,-25.23,0.2,5
0.99,0.09,0.01,0.12,-2.62,1.71,45.19,0.77,-12.23,5
-0.1,0.89,-0.44,-9.52,6.47,6.59,23.14,-36.55,-14.09,3
0.22,0.97,-0.02,11.17,13.98,-0.43,30.33,-32.81,-26.78,3
0.14,0.91,0.37,12.02,-3.17,3.05,22.72,-26.61,-35.1,3
0.98,0.1,-0.03,2.08,-2.56,2.14,44.63,0.55,-13.37,5
-0.99,-0.18,-0.02,-0.12,-35.22,22.83,-5.96,8.13,-20.69,4
0.23,-0.91,0.37,4.94,-7.14,9.28,27,18.16,-12.15,3
0,-0.02,-1.01,7.81,-3.3,2.44,23.54,-22.18,11.27,2
-0.24,-0.02,-0.99,4.94,-2.87,1.65,17.79,-20.18,11.63,2
0.05,1,-0.07,-21.12,11.41,13.85,24.49,-34.06,-25.51,3
1.02,-0.03,0.04,-0.61,-5.86,-1.65,45.46,-11.17,-3.2,5
-0.95,0.11,-0.18,-1.65,-32.84,-0.37,-9.92,-0.11,-16.33,4
-0.97,-0.09,0.01,64.51,4.03,-0.18,-9.74,-16.96,-10.96,4
-0.01,0.98,-0.12,5.43,-0.98,1.28,22.92,-35.85,-23.73,3
-0.99,-0.04,0.02,3.72,-0.98,12.08,-7.15,-20.32,-14.79,4
0,0.96,0.3,20.63,-4.27,1.71,22.45,-28.41,-34.5,3
-0.93,-0.2,-0.33,6.59,5.19,7.87,-5.99,8.58,-11.56,4
0.98,-0.17,-0.02,3.6,-4.64,1.53,45.2,-10.33,-2.84,5
0.78,0.07,0.65,6.77,-11.6,-2.26,46.17,-14.43,-20.06,5
-0.02,0.08,-1.01,4.7,-2.69,1.59,23.47,-24.52,10.53,2
-1,0.07,0.11,-2.93,-28.99,6.71,-8.03,1.29,-23.47,4
0.86,0.47,-0.06,0.12,-9.03,28.2,40.11,-23.43,-0.82,5
0.05,0.01,0.99,4.21,-2.69,1.77,22.58,2.99,-39.26,1
-1,-0.07,0.03,-0.43,-2.26,2.14,-11.51,-15.49,-9.97,4
-0.09,-0.05,-1.01,50.17,-27.77,10.07,20.18,-20.86,11.9,2
-0.97,-0.09,0.08,44.01,-53.41,-1.46,-7.91,-3.76,-5.18,4
-1.01,0.07,0.07,43.88,2.87,-15.69,-8.69,0.77,-9.08,4
0.37,0,0.92,2.2,-4.7,1.4,30.86,3.39,-36.01,1
-0.98,-0.09,-0.17,5.55,-2.87,5.31,-7.3,7.47,-10.95,4
0.22,0.22,0.94,6.04,-16.78,6.9,27.83,-2.94,-39.58,1
-0.03,-0.03,-1.02,48.28,9.64,-0.67,24.04,-22.8,12,2
1.01,-0.07,0.03,9.09,-5.25,-0.98,46.28,-9.99,-3.2,5
-0.03,-0.94,-0.39,29.42,-4.21,0,20.2,10.42,6.95,3
-0.02,0.98,-0.16,35.83,-5.25,-0.18,22.24,-35.07,-22.4,3
-0.03,0.06,1,1.95,-3.66,1.59,19.67,2.49,-39.73,1
0.16,-0.14,-0.96,-23.62,-2.14,-6.23,24.96,-17.36,12.33,2
-0.02,-0.02,1,3.66,-3.11,2.44,23.82,-0.29,-39.01,1
0.89,-0.06,0.39,-31.8,52.31,-37.41,37.15,-4.68,-35.86,5
0.99,-0.02,0.04,2.75,-0.73,0.49,44.95,-11.36,-2.01,5
0.99,-0.04,0.07,2.81,-1.83,0.06,45.17,-12.12,-2.78,5
-0.08,0.15,0.98,9.28,9.95,-0.06,21.07,-1.03,-40.43,1
0.86,0.13,-0.54,-5.19,39.49,-13.06,35.89,-14.58,8.46,5
-0.99,0.06,0.03,-0.73,-7.81,-4.88,-9.03,-5.55,-3.47,4
0.67,-0.55,0.56,-8.48,5.37,9.34,43.44,4.48,-18.1,5
-0.96,-0.12,-0.03,32.78,-0.61,-11.54,-9.74,-9.34,-25.55,4
0.24,0.07,0.96,-0.85,13,-1.4,29.21,1.14,-37.78,1
0.08,0.03,-1.01,4.21,-2.69,1.53,24.37,-22.6,10.45,2
-0.99,-0.08,0.1,4.76,0.49,-1.46,-7.82,6.93,-19.96,4
-0.02,0.39,-0.93,2.26,-2.38,1.04,22.4,-29.91,4.46,2
-0.01,-0.43,-0.94,-7.93,0.31,-2.32,22.58,-9.9,14.27,2
-0.35,-0.06,-0.95,4.58,-3.54,1.59,15.31,-21.15,11.91,2
0.24,-0.12,-0.97,5.74,-2.99,2.26,28.22,-17.87,11.39,2
0.98,0,0.12,4.52,-1.59,0.49,41.82,-4.02,-29.38,5
0.92,-0.34,-0.02,-16.42,-43.03,5.31,43.26,-6.1,1.71,5
-0.13,0.09,0.98,7.57,0.55,0.24,19.03,0.72,-39.92,1
0.24,-0.11,-0.97,4.39,-2.2,2.2,28.3,-17.85,10.14,2
0.97,-0.19,-0.05,2.99,-3.11,1.22,44.62,-9.18,-1.45,5
0.24,0.92,-0.27,-13.79,5.31,16.17,29.2,-33.4,-20.63,3
-0.98,-0.08,-0.17,4.94,-2.32,0.37,-7.4,7.46,-10.39,4
0.23,0.46,0.84,-3.54,-3.72,2.69,29.08,-10.63,-41.46,1
0.99,0.01,-0.04,29.6,-3.91,3.3,45.28,-19.43,-21.61,5
-1.01,-0.04,0.19,-131.53,-10.44,-1.77,-8.44,-19.64,-16.32,4
0.09,-1.01,0.05,-11.54,-2.38,4.82,24.49,17.36,-4.83,3
-0.01,-0.01,1,4.21,-3.05,1.1,20.59,3.77,-39.64,1
-0.19,0.96,-0.02,5.19,-17.52,-1.28,19.31,-34.7,-25.13,3
-0.04,0.4,0.9,-1.46,-1.77,2.14,21.55,-9.27,-42.64,1
0.95,-0.26,0,-3.66,-1.77,5.8,45.14,-8.02,-2.12,5
0.99,-0.07,0,7.39,-2.14,-3.66,42.91,4.35,-11.27,5
-0.24,-0.02,-0.98,8.48,1.28,0.49,17.66,-20.34,12.81,2
-1.02,-0.02,-0.11,-81.3,-17.27,-17.46,-10.08,-6.08,-24.12,4
0.98,-0.05,0,4.27,-0.92,2.99,43.71,4.52,-11.76,5
0.98,-0.02,0.06,6.9,-4.46,-0.18,45.32,-1.53,-6.41,5
-0.29,0.93,-0.27,-41.93,-55.18,0.98,18.26,-37.23,-19.18,3
-1.01,0,0.02,44.62,-5.43,-11.96,-8.86,2.39,-9.33,4
-0.78,0.45,0.43,8.36,-9.46,26.31,-5.31,-8.13,-33.35,4
-0.02,0.48,0.86,3.78,-3.17,1.04,23.43,-12.99,-42.27,1
0.85,0.34,0.41,-14.28,-2.75,-6.35,46.09,-22.64,-13.55,5
-1.02,0.08,-0.11,-9.83,8.18,7.69,-9.35,3.43,-11.8,4
0.09,0.75,-0.58,-15.81,-26.49,-30.15,21.84,-36.58,-8.34,3
-0.2,0.09,0.97,13.92,15.08,3.48,19.27,-1.22,-40.82,1
0,-0.02,0.99,7.57,0.37,-8.91,19.93,4.99,-40.01,1
0.28,-0.92,0.3,5.62,-2.69,1.53,29.87,16.46,-11.28,3
0.99,-0.11,0.04,11.54,-2.38,-2.32,42.52,5.2,-12.56,5
0,0.19,-0.96,-9.95,-12.45,1.16,21.53,-25.88,8.51,2
-0.04,0.98,-0.19,43.46,-0.43,-2.44,22.2,-35.75,-21.47,3
-0.01,-0.01,0.99,4.21,-2.2,1.34,21.36,3.86,-40.1,1
-0.08,0,0.99,2.99,0.49,0.24,20.07,2.78,-40.04,1
-0.27,0.95,-0.03,30.27,18.74,10.93,17.38,-33.47,-25.1,3
-0.17,0.07,0.98,14.47,9.95,-0.24,18.86,-0.62,-41.93,1
-0.02,0,0.99,8.54,-4.09,3.48,18.03,5.21,-40.36,1
-1,-0.12,0.11,114.93,-25.57,29.72,-9.5,-15.67,-6.02,4
-0.05,-0.25,0.96,26.86,0.31,-2.44,20.53,8.91,-35.45,1
-0.98,-0.08,-0.05,116.33,14.47,-37.35,-9.24,2.92,-21.48,4
-0.22,-0.06,-0.99,9.52,-7.75,6.41,17.6,-20.01,12.4,2
-0.02,-0.02,1,4.33,-2.93,8.61,20.61,3.82,-39.29,1
0.99,0.04,0.06,-9.77,-1.65,5.07,45.78,-2.51,-8.02,5
-0.16,-0.96,0.27,-4.15,0.67,19.47,16.69,19.03,-9.27,3
0.03,-0.07,-1.01,4.94,-1.46,0.31,22.74,-19.67,10.78,2
-0.01,0.01,0.99,8.97,-3.17,2.2,21.73,3.09,-39.65,1
-1,-0.1,0.05,-3.42,-0.73,6.65,-9.92,-15.63,-10.88,4
-0.29,0.91,0.18,-19.53,-24.54,0.85,19.29,-34.33,-27.62,3
-0.04,-0.79,-0.64,4.21,-3.36,1.22,19.95,4.64,10.78,3
0.16,0.1,0.99,7.45,24.78,-5.37,25.83,1.09,-39.76,1
0.97,-0.19,-0.05,3.66,-4.82,3.11,44.25,-9.55,-1.62,5
-0.11,0.98,0.05,-4.88,-17.7,-1.53,21.78,-33.84,-27.99,3
0.01,0.04,-1.01,4.39,-4.21,1.77,24.05,-23.6,11.1,2
0.03,-1.01,0.1,-13.73,-3.66,3.23,22.53,18.2,-4.91,3
-0.01,-0.01,0.99,3.97,-3.17,1.46,22.91,1.77,-39.6,1
0.98,-0.05,-0.02,43.46,-0.98,-1.77,46.09,-21.28,-11.67,5
-1.03,-0.13,-0.07,33.2,8.91,-1.1,-9.27,-9.22,-24.87,4
-0.21,-0.97,0.32,-0.31,-7.63,-8.3,18.23,19.6,-12.6,3
0.97,0.15,-0.01,6.96,18.19,0.06,44.57,-16.93,-3.47,5
-0.98,-0.09,0.28,33.14,-17.76,19.9,-5.54,7.48,-23.74,4
0.17,0,-0.99,23.5,5.92,5.07,26.77,-21.48,10.78,2
0.16,-1.01,0.09,33.51,-5.13,-11.9,28.33,16.25,-5.64,3
0.14,-0.57,-0.79,3.72,-19.53,17.15,27.72,-5.09,12.18,2
0.21,-0.95,0.26,2.38,-4.94,12.33,25.34,18.05,-9.14,3
-0.01,0.19,0.98,11.54,-22.58,7.87,22.45,-3.25,-41.28,1
-0.13,0.12,0.98,-20.14,16.24,-4.21,18.87,-0.74,-41.75,1
-0.17,-0.09,-1,-6.59,8,-4.15,18.95,-18.76,12.79,2
-0.05,0.03,-1.01,4.15,-2.81,1.46,21.55,-21.83,11.35,2
0.11,-0.12,-0.98,11.66,-3.3,-2.81,25.54,-19.42,10.51,2
0.13,0.01,0.97,-18.19,-25.63,-3.54,24.69,3,-38.83,1
-0.99,0,-0.02,38.02,-2.38,-1.4,-8.35,5.44,-17.4,4
0.99,-0.07,0.02,32.65,-8.54,4.64,43.4,4.36,-10.68,5
-0.03,-0.79,-0.63,3.42,-4.15,1.4,20.15,5.55,10.25,3
0,-0.01,1,4.27,-2.93,1.83,21.28,3.59,-39.86,1
0.03,-0.01,-0.96,-1.34,-11.41,10.07,22.8,-20.64,11.45,2
-0.01,-0.01,0.99,4.03,-3.11,1.46,22.97,1.86,-39.82,1
0.15,0.32,-0.92,26,-27.77,15.81,25.54,-29.91,5.73,2
0,-0.02,0.99,9.28,-0.18,1.83,21.64,3.25,-38.85,1
-0.02,0.01,1,4.7,-0.49,3.23,21.91,3.31,-39.73,1
-0.06,-0.02,1.01,1.28,-9.64,2.81,20.39,3.36,-39.1,1
1,0,0.06,6.04,-1.46,0,45.45,-12.44,-3.26,5
-1,-0.09,0.03,4.21,-6.65,-0.67,-9.72,-17.22,-15.3,4
-0.05,0.98,0.09,2.69,-22.64,-19.29,22.24,-32.74,-29,3
0.9,-0.33,0.26,13,-0.55,-12.63,46.58,-4.68,-10.56,5
0.9,-0.37,-0.35,-1.28,-34.91,12.21,41.76,-5.93,3.17,5
0.91,-0.11,-0.42,2.56,-5.43,2.01,38.5,-10.38,7.24,5
-0.92,0.37,0.04,23.32,33.02,-2.81,-11.04,-5.42,-23.63,4
-1.01,0.04,-0.03,5,-4.21,-0.12,-9.08,3.98,-17.65,4
0.05,-0.03,0.98,11.84,-16.78,2.38,24.22,2.87,-39.45,1
-0.89,0.1,-0.42,-4.15,-28.38,30.4,-10.28,-1.34,-12.88,4
0.94,-0.29,-0.03,4.88,-4.46,10.13,45.25,-7.45,-2.73,5
-0.01,-0.01,0.99,3.97,-2.93,1.46,22.09,1.72,-38.99,1
0.05,0.91,-0.43,-16.42,-1.77,3.54,23.56,-36.23,-16.14,3
-0.11,0.96,0.08,0.43,-21.61,5.86,22.81,-33.24,-28.45,3
-0.15,0.95,-0.23,-29.97,-7.39,-3.66,19.76,-35.64,-21.15,3
-0.03,-0.01,0.99,4.33,-3.11,0.31,22.57,1.81,-40.54,1
-1,0.02,0.01,20.51,44.37,-10.86,-9.23,3.77,-20.25,4
0.98,0.08,-0.02,6.96,-2.93,2.75,44.31,1.31,-13.64,5
0.12,0.12,1.05,3.3,31.07,-0.92,24.99,-1.17,-40.59,1
-0.99,-0.14,0.09,99.49,-2.5,-10.38,-9.81,-12.6,-7.01,4
0.23,-0.12,-0.97,1.4,-1.59,1.22,28.36,-18.51,11.33,2
-0.02,0.1,0.99,-49.56,1.34,3.3,21.98,-0.66,-39.69,1
-0.83,0.06,0.05,-4.21,-18.74,-2.38,-8.56,-5.21,-4.53,4
0.25,-0.12,-0.99,31.49,-16.97,7.02,29.85,-19.93,11.29,2
0.01,-1,-0.2,29.91,-3.78,-2.87,21.75,13.81,2.39,3
-0.93,0.34,-0.01,8.24,10.5,-24.41,-11.56,-5.24,-20.08,4
0.19,0.06,0.97,4.82,-4.21,2.2,29.87,-0.6,-38.57,1
-0.94,0.04,0.35,12.27,36.99,14.4,-5.4,3.58,-28.52,4
-0.08,1,0.07,15.75,-19.53,-4.7,21.68,-32.73,-28.47,3
0.14,0.08,0.97,15.81,-1.1,-0.73,27.65,-0.92,-40.16,1
-0.02,-0.34,0.94,0.31,-3.23,1.59,22.08,10.28,-35.03,1
-0.01,-0.72,0.71,-4.33,-3.42,2.56,22.11,16.97,-23.43,3
-0.03,1,-0.12,43.46,-4.21,-5.74,22.03,-34.72,-23.94,3
0.11,0.07,0.98,3.66,23.5,-4.21,24.73,0.46,-40.2,1
-0.96,-0.21,0.17,6.84,24.48,18.25,-3.98,8.54,-25.07,4
0.29,-0.94,0.21,1.95,-3.6,2.81,28.97,16.21,-8.67,3
-0.02,0.09,0.99,5.68,2.75,1.04,20.78,1.11,-40.37,1
0.99,-0.09,0.03,2.44,-1.95,2.62,43.07,4.1,-11.44,5
-0.06,0.95,-0.27,29.05,5.13,23.01,21.34,-35.05,-18.7,3
-0.04,-0.02,0.99,-4.7,-2.69,-2.99,22.17,2.45,-39.82,1
-0.01,0,1,3.78,-1.53,1.95,21.52,3.36,-39.99,1
-0.11,0.02,0.99,5.62,-3.66,1.34,19.58,2.25,-39.75,1
0.96,0.01,-0.16,5.55,-4.46,-1.28,43.63,-12.77,-0.71,5
0.11,0.98,-0.14,10.68,-2.99,25.45,25.27,-35.13,-23.33,3
-0.02,-0.17,-0.99,-21.73,-2.75,6.1,21.7,-15.93,13.49,2
-1,0.01,0.1,5.74,-2.2,2.81,-7.7,-5.87,-4.14,4
-1,-0.05,0.06,-106.63,0.79,1.1,-8.86,-16.83,-8.54,4
0.01,0.09,-1.01,7.45,-3.17,12.39,24.07,-23.01,9.94,2
-0.17,0.15,0.97,-12.02,-6.9,6.53,18.21,-0.09,-40.89,1
0.03,0,1,3.85,-2.69,2.87,24.08,3,-38.28,1
-0.99,-0.12,0.03,18.19,-11.72,-25.63,-10.64,-15.61,-11.16,4
0.1,0.98,-0.15,5.13,5.8,-7.2,25.34,-35.28,-23.14,3
0.01,0.98,-0.12,4.03,-2.38,1.46,23.94,-35.28,-23.88,3
-0.12,0.97,-0.05,-2.32,0.79,4.21,17.97,-34.39,-24.91,3
0.99,0.09,0,3.85,-2.69,1.83,44.76,0.92,-12.46,5
0.02,0.05,1,4.03,-3.97,4.76,23.36,1.43,-39.55,1
0.04,-0.03,0.98,-1.4,-7.14,2.93,23.71,2.94,-39.54,1
0.97,-0.02,0.09,4.39,-4.76,3.23,45.06,-11.61,-4.93,5
0,-0.01,-1.02,4.46,-2.2,0.37,23.19,-21.9,11.5,2
-0.01,-0.01,0.99,3.97,-3.05,1.4,22.33,1.88,-38.26,1
0.99,0,0.05,3.17,-3.78,1.46,44.84,-12.22,-2.19,5
-0.02,0.08,-1.01,3.42,-2.87,1.46,22.85,-24.82,10.66,2
-0.01,0.01,1,5.49,-2.99,0.73,22.03,3.34,-39.55,1
0.03,-0.2,0.97,3.23,-4.03,1.1,21.57,7.71,-37.21,1
0.89,0.08,0.45,54.14,-18.8,-5.68,47.79,-13.59,-15.54,5
-1,0.05,-0.01,16.91,18.49,7.63,-9.96,2.86,-18.32,4
-0.81,0.36,0.45,-20.14,-2.08,-24.9,-5.22,-6.29,-31.75,4
0.79,0.56,-0.03,-17.94,-18.68,-98.51,40.11,-28.06,-25.23,5
0.2,0.08,0.97,8.97,-3.72,2.2,29.26,-1.01,-38.99,1
1.05,0.04,0.14,78.43,-1.28,-7.14,47.71,-12.18,-5.51,5
0.05,0.03,-1.01,4.15,-3.85,1.53,23.5,-22.29,10.62,2
-0.94,-0.21,-0.31,9.09,8.85,3.78,-6.24,9.47,-11.23,4
0.14,0.11,0.96,-6.35,-38.21,19.29,25.84,-0.48,-40.28,1
-0.03,-0.02,0.99,4.88,-2.14,2.81,20.07,4.1,-38.96,1
0.05,0.05,-1,5.92,-4.33,0.18,24.43,-22.73,10.03,2
0,0.97,0.1,3.36,-1.4,13.18,25.67,-32.81,-27.88,3
-0.98,-0.09,-0.15,6.23,-2.99,2.75,-7.5,7.96,-10.86,4
-0.21,0.1,0.98,13.24,4.03,-1.16,17.68,-0.76,-41.43,1
0.06,-1,0.01,12.88,-12.7,-2.62,25.62,16.88,-4.43,3
0.16,0.96,-0.02,5.25,1.53,-7.45,25.56,-34.3,-26.79,3
1,0.09,-0.02,7.32,-4.15,-2.08,44.69,1.25,-12.77,5
0.11,0.96,-0.11,-0.43,-6.41,-12.21,29,-33.98,-23.3,3
0.84,0.52,-0.03,-36.32,-3.11,-103.09,41.58,-26.07,-24.34,5
-0.02,0.48,0.86,2.62,-2.87,1.46,23.54,-12.39,-41.66,1
-0.1,-0.45,-0.98,-17.52,-49.87,24.48,22.33,-10.72,15.11,2
0.15,-0.01,0.99,-17.76,61.71,-9.95,25.66,3.71,-38.16,1
0.83,-0.39,-0.35,8.97,18.43,9.83,39.27,-5.52,6.15,5
0.02,-0.02,0.99,4.33,-2.62,1.34,24.39,3.05,-39.61,1
-0.32,-0.92,0.26,5.92,-2.26,4.21,13.07,19.03,-9.24,3
-0.97,-0.01,0.1,9.28,-2.87,7.57,-9.12,-2.75,-4.32,4
-0.05,-0.84,-0.56,27.22,-3.72,0.55,20.13,6.79,9.96,3
0.27,-0.96,0.23,2.87,-2.93,2.2,28.52,17.08,-7.97,3
0.93,0.12,-0.17,-5.98,2.44,56.82,42.81,-15.15,1.18,5
0.29,0.13,0.93,3.54,-1.16,1.4,30.21,-0.66,-37.95,1
0.78,-0.61,-0.16,4.94,-2.93,1.46,39.64,2.58,1.17,5
-1,-0.11,-0.16,22.28,-9.28,-4.39,-10.29,-9.67,-22.74,4
0.07,-0.16,-1.01,7.57,-3.23,1.28,24.22,-17.92,12.72,2
0.24,-0.12,-0.97,3.66,-1.46,1.1,28.1,-18.74,10.5,2
0.02,0.1,0.99,6.59,-3.85,1.22,22.31,0.09,-40.52,1
-0.03,-0.31,-0.96,32.17,-0.85,0.61,21.78,-12.87,13.87,2
0.99,-0.01,0.02,3.17,-2.81,2.32,44.76,-11.06,-2.86,5
0.03,-0.05,1,-8.61,-1.77,0.12,21.08,4.04,-40.1,1
0.98,-0.02,-0.15,-13.18,68.91,-12.57,43.46,-13.43,-0.12,5
-0.04,-0.15,0.98,-1.4,-10.56,0.79,21.66,6.24,-37.77,1
-0.02,0.38,-0.93,1.34,-2.01,0.85,20.89,-29.37,4.94,2
1.04,-0.08,0.05,9.83,-3.48,12.45,45.81,-2.33,-4.82,5
0.1,0.77,-0.63,8.79,-17.09,-16.05,21.79,-37.11,-7.96,3
0.3,-0.93,0.28,8.79,-14.77,8.54,29.31,16.46,-8.74,3
0.2,-0.02,-0.98,-3.05,8.48,1.22,26.97,-20.83,10.56,2
-0.35,-0.06,-0.95,3.48,-2.99,1.34,15.15,-21.17,10.82,2
0.03,0.1,0.99,4.94,-3.05,2.26,21.97,1.01,-40.78,1
0.21,-0.61,-0.79,8.18,-2.38,1.95,28.14,-3.97,12.18,2
-0.03,-0.01,0.87,-13.18,5.92,2.32,21.67,3.61,-39.92,1
-0.01,-0.01,0.99,4.27,-2.87,0.61,21.31,3.87,-39.14,1
0.24,-0.91,0.37,2.75,-9.28,9.52,26.81,17.88,-11.67,3
-0.12,0.93,0.29,-35.83,-1.34,24.72,20.58,-29.22,-33.31,3
-1.01,0.01,0.03,2.5,-3.91,1.89,-9.12,4.03,-18.62,4
-0.01,0.09,-1,4.33,-2.87,1.16,23.66,-24.02,10.03,2
-0.11,-0.26,-0.96,-13.18,-3.3,2.69,20.52,-14.28,14.15,2
0.03,0,1.01,3.05,-7.32,1.4,22.25,3.44,-39.79,1
-0.21,-1,-0.01,-2.62,6.04,-4.33,18.49,17.04,-2.98,3
0,-0.1,-1.01,15.44,-1.71,1.59,24.08,-21.09,11.02,2
-0.02,0,1,2.87,-3.11,0.79,17.88,5.62,-39.59,1
0.38,-0.01,0.9,3.05,-2.01,0.31,30.57,3.87,-36.84,1
0.01,0.07,0.99,5.19,-2.75,0.67,22.61,1.4,-39.49,1
0.99,0,0.06,4.64,-0.67,0.67,45.4,-13.04,-3.45,5
-0.15,0.01,-1,-6.53,16.11,-1.4,19.36,-22.36,11.63,2
0,0.98,-0.11,4.21,-2.56,0.85,23,-35.18,-24.56,3
0.97,-0.19,-0.05,2.75,-2.32,1.53,44.43,-9.7,-1.9,5
0.24,0.39,0.89,-25.45,-0.37,4.46,28.82,-8.59,-41.24,1
0.07,0.08,1,21.97,16.11,-2.14,25.54,-0.1,-40.38,1
-1.01,-0.03,0.01,8.3,-2.32,4.88,-7.12,-20.83,-15.22,4
0.02,-0.11,0.99,8.85,-5.98,2.2,25.37,2.08,-38.42,1
-0.15,-0.04,0.97,2.38,-9.46,2.56,19.48,2.49,-39.45,1
0.98,-0.14,0.05,2.56,-2.81,2.2,46.55,-11.02,-4.65,5
0.09,0.92,-0.37,7.39,24.35,29.17,25.42,-34.13,-16.64,3
0.01,0.09,0.97,-12.63,-32.65,10.74,23.14,1.49,-40.28,1
0.98,-0.11,0.06,1.65,-2.87,2.5,45.62,-11.06,-4.47,5
0.2,0.03,0.98,1.89,18.37,2.26,27.44,1.27,-37.76,1
-0.01,-0.01,0.99,3.91,-2.87,0.61,21.69,3.61,-39.49,1
-0.07,-0.02,0.99,2.5,-11.41,3.48,20.1,3.69,-38.94,1
-0.01,-0.01,1,4.21,-2.81,1.22,22.31,2.54,-39.31,1
-0.96,-0.11,0.15,-34.85,-3.11,6.53,-12.01,-11.54,-8.78,4
-1,0.04,0.05,5.49,-1.59,0.92,-9.22,3.53,-19.13,4
0.09,-0.05,-1.01,-33.33,-11.66,6.1,25.95,-21.24,11.76,2
0.26,-0.02,0.95,13.31,-15.87,0.67,28.05,3.94,-37.13,1
-0.01,-0.01,0.99,4.15,-2.87,1.28,21.17,3.71,-40.75,1
0,0.04,0.96,-13.06,24.78,5.86,22.83,1.31,-40.28,1
-0.02,0.87,-0.46,6.65,-2.38,2.5,21.06,-35.07,-14.37,3
0.98,0.08,0.27,6.96,21.85,13.49,47.41,-14.79,-10.16,5
0.99,0.08,0,2.87,-2.44,2.14,45.04,0.81,-13.43,5
0.03,-0.06,-1.01,3.66,-2.26,1.46,23.35,-19.38,11.34,2
0.98,0.01,0.08,4.94,-2.44,0.85,45.79,-13.42,-3.44,5
0.94,-0.04,-0.34,-10.74,-30.64,-0.92,39.56,-10.49,5.3,5
-0.02,-1.04,0,4.15,-3.78,2.08,20.12,16.61,-2.37,3
-0.96,0.23,-0.15,-3.11,0.67,3.48,-10.29,-1.65,-9.78,4
0.01,0.35,0.92,-43.46,-19.23,7.87,24.61,-7.47,-41.32,1
0.75,-0.46,0.48,-2.01,-24.48,16.42,44.7,3.34,-16.52,5
0.01,-0.29,-0.96,-6.77,-2.75,1.46,22.18,-13.27,15.01,2
-0.04,-1,-0.04,-4.88,7.93,-0.43,23.44,16.83,-2.45,3
0,0.04,-1.01,5.43,-3.23,0.49,22.8,-22.92,10.11,2
0.22,-0.07,-0.98,2.69,-3.48,1.4,27.73,-19.6,11.17,2
0.3,-0.95,0.21,1.59,4.27,2.81,29.19,16.7,-7.59,3
0.88,0.05,0.47,36.38,-52.8,-13.43,45.74,-3.31,-17.41,5
-0.96,-0.26,0.15,5.37,21.79,25.02,-4.02,10.24,-23.03,4
-0.02,-0.7,0.72,4.82,-2.2,1.83,22.02,17.02,-24.76,3
-0.35,-0.07,-0.95,4.09,-2.5,1.34,15.41,-21.37,11.77,2
0.13,0.48,0.85,20.45,-16.05,6.41,27.01,-11.63,-41.85,1
-0.05,0.03,-1.01,4.58,-2.69,1.28,21.9,-22.46,10.75,2
-0.27,0.91,-0.31,-23.07,-39.43,7.08,17.94,-37.38,-17.1,3
-0.02,0.39,-0.93,5.68,-2.99,1.4,22.34,-30.26,4.3,2
0.98,0.08,0.07,1.77,-3.11,1.59,45.35,-2.66,-7.58,5
-0.77,0.31,-0.54,-8.12,-26.86,1.28,-9.64,-7.86,-5.97,4
0.85,-0.44,-0.34,10.25,22.52,9.4,39.73,-5.11,4.69,5
-0.07,-0.18,-0.99,56.34,-5.92,1.95,20.2,-16.5,13.67,2
0.99,0,-0.04,21.36,-3.72,2.14,45.25,-21.34,-15.82,5
0,0.98,-0.12,3.97,-2.87,1.65,23.05,-35.08,-23.75,3
0.8,-0.08,0.57,-56.82,6.9,44.62,47.2,-9.19,-18.75,5
-0.01,-0.02,1,3.85,-3.3,2.01,23.61,0.6,-39.7,1
0.17,-0.02,0.99,-0.18,-11.84,-0.31,25.79,3.74,-38.32,1
-0.99,0.01,0.02,3.17,-48.95,-33.14,-6.93,-6.04,-4.72,4
-0.97,-0.29,-0.07,5.19,-7.08,28.08,-4.5,10.19,-19.93,4
-0.02,0.38,-0.94,2.38,-2.14,1.22,20.98,-29.35,4.58,2
-1,-0.03,-0.17,86.24,-6.23,-7.14,-10.47,-11.06,-21.34,4
0.05,0,1,4.7,-4.21,0.85,23.19,3.12,-38.31,1
-0.03,0.98,-0.25,-10.74,-2.32,5.43,21.46,-34.69,-19.3,3
-0.09,0.03,0.98,1.65,-3.97,1.04,19.08,2.77,-39.47,1
0.99,-0.04,0.04,3.42,-2.87,1.71,45.52,-12.19,-3.87,5
0.68,-0.66,-0.32,-12.15,-34.91,-7.51,33.64,5.2,5.36,5
-0.99,0.03,0.02,40.41,-7.51,-3.23,-9.39,-3.75,-4.09,4
-0.17,0.08,0.98,2.62,0.49,-0.37,18.81,0.51,-40.49,1
0.98,-0.1,0.01,25.88,-4.76,-0.37,44.49,2.19,-9.3,5
-0.11,0.06,-1.02,-4.33,-25.94,8.67,20.07,-23.47,11.68,2
0.14,0.52,-0.85,-7.51,1.83,2.5,24,-34.33,1,2
0.14,0.9,0.34,12.51,-2.08,1.22,23.11,-26.57,-35.49,3
-0.99,0.01,0.11,4.88,-1.77,1.95,-7.92,-5.86,-6.12,4
-1,0.03,-0.01,3.11,-3.72,0.49,-8.94,3.86,-19.58,4
0.01,0.31,-0.96,-2.08,-3.6,2.08,22.96,-29.11,5.62,2
0.13,-1.02,0.04,17.52,-5.49,-8.97,27.75,16.04,-4.36,3
1,-0.04,-0.02,-8.06,-3.54,1.16,45.14,-21.34,-9.44,5
-0.06,-0.1,-1.01,29.24,1.1,0.67,22.16,-19.78,12.56,2
0.01,-0.99,0.2,-4.52,-9.83,-11.6,23.56,18.77,-9.06,3
-0.02,0.38,-0.93,2.56,-2.32,1.1,20.94,-29.14,4.66,2
0.24,-0.11,-0.97,5,-2.87,1.22,28.5,-18.51,10.39,2
0.97,0.04,-0.08,-16.97,-72.39,-2.32,42.85,-13.53,1.4,5
0.89,-0.33,-0.49,-13,-24.05,-17.03,32.65,9.38,2.03,5
0.05,-0.01,0.97,7.81,19.35,-0.12,24.95,2.31,-40.41,1
0.02,-0.05,-1,4.39,-3.05,1.34,23.07,-19.81,12.9,2
0.99,-0.04,0.04,4.88,-0.43,1.53,45.35,-12.33,-4.2,5
-1,-0.09,0.02,4.33,-2.38,1.53,-9.27,-17.71,-14.54,4
-0.02,-0.01,1,3.91,-2.99,1.34,21.33,3.76,-38.56,1
0.97,-0.01,0.14,1.77,-1.83,0.12,42.42,-3.97,-28.56,5
-0.97,-0.02,-0.2,11.84,22.64,2.56,-9.86,3.54,-15.63,4
-0.25,0.32,-0.93,-21.48,18.62,9.09,17.58,-31.02,5.51,2
0.91,0.03,0.25,3.66,-9.7,-13.24,45.17,-7.82,-3.5,5
-0.02,0.05,1,5.49,9.03,0.49,21.85,1.44,-39.62,1
0,-0.01,-1,2.99,-2.87,0.98,22.81,-22.22,11.55,2
-1,-0.02,0.04,-6.71,-7.81,49.38,-10.88,-15.71,-9.53,4
-0.99,-0.09,-0.16,4.27,-2.5,1.34,-7.65,8.42,-9.56,4
0.99,-0.2,-0.03,4.52,-2.69,0,44.56,-8.75,-2.44,5
0.89,-0.04,-0.45,0.24,-18.49,-24.84,36.47,-11.08,8.54,5
1,-0.02,0,5,-0.49,2.32,45.56,-12.56,-1.86,5
-0.81,-0.14,0.52,-15.14,8.54,-28.63,-3.39,9.7,-28.02,4
-0.97,0.14,-0.12,-13,2.93,16.72,-9.95,2.47,-11.18,4
-0.02,0.48,0.86,6.1,-2.93,1.34,23.71,-11.74,-42.44,1
-0.39,0.21,-0.92,-2.14,1.4,12.27,12.81,-28.71,6.68,2
-0.14,-0.34,-0.96,-69.7,-26.98,17.76,19.03,-11.56,15.1,2
-0.01,0,1,3.97,-2.5,1.4,21.67,3.27,-39.44,1
-0.92,0.31,-0.13,-17.27,-46.02,-11.23,-10.35,-6.37,-17.4,4
0.99,-0.01,0.03,1.71,-2.01,3.72,45.64,-11.27,-2.86,5
0.19,0.3,0.92,-2.38,0.98,0.67,27.27,-5.19,-40.58,1
0.96,-0.28,-0.03,3.6,-3.36,4.15,44.41,-8.28,-2.54,5
-0.98,0.02,0.06,51.51,-4.03,-6.47,-10.33,-11.24,-5.3,4
-1,-0.04,-0.08,5.98,33.2,23.68,-8.69,4.16,-20.26,4
0.96,-0.27,-0.04,3.48,-0.31,2.32,44.87,-7.68,-1.23,5
0.87,-0.38,-0.14,18.13,-4.09,-32.1,41.92,-4.94,-0.04,5
0.98,-0.02,-0.04,7.75,-3.23,-0.55,45.09,-21.37,-13.73,5
0.01,-0.14,-0.93,8.73,35.58,-12.51,24.39,-18.96,12.6,2
0.98,-0.21,-0.05,3.23,-2.93,0.43,44.03,-8.52,-1.88,5
0.25,-0.93,0.33,4.27,-2.99,1.65,27.97,17.16,-12.7,3
0.98,0.11,0.1,9.58,-3.66,-0.79,44.87,-2.84,-6.77,5
-0.03,0.09,-1.01,5.43,-0.85,-2.56,23.41,-24.65,10.89,2
0.97,-0.21,-0.05,4.52,-2.69,1.83,44.78,-8.47,-2.23,5
-0.09,0.17,0.96,-19.1,19.35,-3.3,20.56,-2,-42.1,1
0.1,-0.38,-0.92,-4.94,3.72,-5.07,23.88,-11.56,13.46,2
0.11,-0.17,0.97,5.07,-3.91,-0.12,23.95,6.79,-36.63,1
0.07,0.25,0.94,30.46,-17.46,6.41,24.19,-5.04,-41.39,1
0.96,-0.16,0.01,5.74,-3.36,4.33,44.41,-8.13,-2.22,5
0.94,-0.11,0.39,50.9,58.84,-6.35,46.69,-9.57,-12.15,5
0.82,-0.1,-0.62,-39.31,31.43,-11.41,34.57,-10.45,9.31,5
-1,-0.06,0.02,6.23,-1.95,-2.75,-6.36,-20.54,-13.99,4
0.96,-0.19,-0.03,3.17,-4.76,3.11,44.69,-9.17,-2.37,5
0.99,-0.07,0.06,5,-2.81,-1.77,45.34,-11.88,-3.66,5
0.99,-0.08,0.04,26,-4.94,5.8,44.25,2.82,-11.23,5
0.85,-0.45,0.24,3.3,-6.29,-6.1,46.45,-2.92,-9.61,5
0,0.97,-0.08,1.4,-7.08,-21.18,25.62,-35.05,-23.05,3
-1.01,-0.06,0.01,4.82,-1.83,-0.49,-6.6,-20.07,-12.88,4
0.13,0.12,0.97,18.74,-7.08,0.18,25.04,-0.26,-39.49,1
0.98,0.06,0.08,2.5,-3.6,1.83,45.76,-2.44,-7.19,5
0.24,0.16,0.96,1.71,-6.96,2.44,28.11,-2.14,-39.92,1
-0.97,-0.14,0.2,7.87,-23.5,-2.26,-5.74,8.2,-21.56,4
-0.02,-0.41,-0.93,3.97,-2.69,1.71,22.74,-10.69,13.78,2
-1,0.03,0.04,4.46,-2.81,0.49,-9.31,-5.79,-3.65,4
0.09,-0.14,-1.01,10.44,-4.15,3.23,25.55,-18.47,12.55,2
0.57,0.79,-0.16,-27.16,-63.11,-52.67,35.45,-32.85,-22.57,5
0.98,-0.11,0.05,2.08,-2.14,2.44,42.86,4.72,-11.69,5
0.98,0.07,0.06,47.73,-1.59,-1.53,44.18,-12.4,-28.09,5
-0.01,-0.71,0.71,4.94,-3.42,2.08,22.17,17.63,-24.68,3
-1,0.09,-0.06,-11.35,-9.46,-21.79,-10.3,-0.77,-21.51,4
-0.01,0.96,0.25,-12.88,-0.67,-1.59,23.47,-30.19,-32.41,3
0.99,-0.13,0.05,3.78,-4.7,3.36,46.37,-11.12,-4.9,5
0.16,-0.04,-1,-12.94,-13.18,-2.14,25.46,-19.03,12.05,2
0.37,0,0.9,6.96,8.06,-4.03,30.14,3.38,-37.32,1
0.22,-0.14,-0.97,8.18,-3.91,1.53,27.94,-17.58,10.86,2
-1,-0.03,-0.08,-24.17,-4.64,7.02,-9.25,-12.84,-24.32,4
-0.16,-0.16,-0.98,31.74,8.18,-2.69,18.86,-16.64,13.13,2
-0.2,-1,-0.02,-2.2,7.14,-5.13,18.48,16.96,-2.09,3
-0.95,-0.29,-0.15,1.16,-23.07,-2.75,-4.35,10.77,-13.71,4
0.16,-0.12,-1,-16.17,-7.81,5.68,27,-20.35,11.54,2
-0.96,0.21,-0.09,11.66,4.46,3.17,-10.51,-5.54,-19.69,4
0.74,-0.06,-0.69,7.14,0.67,-0.24,30.92,-11.27,11.13,5
-0.02,0.97,0.14,25.21,-4.64,-1.04,22.67,-31.59,-30.93,3
-0.99,-0.08,-0.16,5.92,-1.46,0.85,-7.4,8.26,-10.35,4
0.09,-0.98,0.01,-18.13,-4.27,7.57,24.72,16.48,-3.34,3
-0.95,-0.2,-0.26,13.31,22.58,3.36,-6.2,8.98,-12.5,4
0.03,0.12,0.98,2.99,-2.87,1.28,22.22,-0.44,-40.83,1
0.1,0.96,0.04,-31.01,7.69,12.57,24.35,-33.2,-27.82,3
0.98,-0.2,0.28,7.45,-13,-14.53,47.33,-8.41,-11.16,5
0.01,-0.04,0.99,-14.28,-24.29,11.23,22.5,3.82,-39.33,1
0.82,-0.12,-0.56,6.35,44.62,-9.16,35.3,-10.14,9.05,5
-0.12,0.06,0.98,5.25,5.68,0.92,20.65,0.01,-40.09,1
0.95,0.06,0.35,10.62,11.41,4.64,46.31,-13.46,-11.98,5
-0.01,-0.01,0.99,4.03,-3.11,1.46,23,1.14,-39.09,1
0.04,0.31,0.95,-39.49,-20.2,5.86,24.37,-6.52,-41.03,1
0.94,-0.2,0.21,-2.01,-18.62,16.36,47.28,-8.87,-8.13,5
-0.96,-0.23,-0.15,16.3,-26.18,30.76,-4.82,9.92,-14.21,4
0.2,0.07,0.97,-4.39,-0.06,-0.43,29.03,-0.52,-40.09,1
-1.01,-0.04,-0.09,4.7,-2.01,0.43,-9.17,-9.99,-25.78,4
-0.98,-0.07,0.05,-22.46,-5.86,6.71,-10.11,-8.73,-4.24,4
-0.02,-0.84,-0.6,2.93,-2.01,0.85,21.48,5.11,10.07,3
0.08,-0.83,0.6,27.65,-6.04,-4.33,23.35,18.66,-18.64,3
0.08,-0.99,0.18,16.54,-11.41,5.25,24.78,18.25,-7.76,3
-0.09,0.91,-0.37,-12.45,-13.24,-14.83,21.23,-36.5,-15.27,3
0.99,0,-0.02,19.29,-2.32,2.32,44.78,-18.82,-21.56,5
0.97,-0.2,-0.07,4.46,-2.5,1.22,44.43,-9.05,-2.55,5
0.05,-0.96,0.29,-4.94,-8.61,-31.62,22.53,19.4,-11.11,3
-0.01,-0.03,-1.01,67.26,1.53,-2.69,23.13,-20.92,11.3,2
0.04,-0.05,-1.03,-21.36,-5,6.29,23.8,-21.47,11.79,2
0.02,-0.83,0.55,43.46,1.65,2.93,21.73,18.88,-19.07,3
-0.01,-0.01,1,3.97,-3.17,6.96,24.24,-0.62,-39.79,1
0.03,0.12,1,24.84,22.03,-2.32,23.83,-0.9,-41.54,1
-0.03,-0.25,-0.96,-12.45,-6.16,1.95,22.14,-14.69,14.06,2
-1.01,0.02,-0.11,-36.93,-2.5,4.7,-10.39,-0.5,-22.05,4
-0.02,0.11,-0.99,-4.21,-3.97,4.09,23.61,-24.62,10.18,2
-0.96,0.05,0.27,14.47,35.28,7.87,-6.67,3.16,-26.92,4
0.99,0.01,0.09,16.3,-1.95,2.2,42.96,-5.69,-27.55,5
0,0.03,-1.01,40.83,6.71,0.61,21.84,-21.95,11.12,2
1,-0.01,0.04,11.17,-11.29,-0.85,44.45,-2.48,-25.01,5
0.98,-0.01,0.13,7.75,-1.77,3.36,42.65,-2.87,-28.96,5
-1,-0.08,0.05,69.27,17.52,-6.1,-8,5.75,-15.94,4
0.98,0.06,0.05,9.4,-3.11,0.24,45.63,-2.89,-6.91,5
-0.08,0.14,0.99,5.74,-12.02,1.28,19.24,-0.37,-40.97,1
0.11,0.1,0.99,15.56,15.75,-2.26,24.38,0.17,-40.44,1
-0.82,0.32,-0.53,-14.89,-33.75,-0.85,-9.77,-7.9,-6.93,4
-0.01,0.08,-1,0.79,0.18,-0.43,23.62,-23.5,10.86,2
0,0.11,0.97,5.07,16.78,-2.99,22.2,-0.2,-39.06,1
0.13,0.11,0.98,11.41,20.51,-5.62,25.52,0.73,-40.01,1
-0.02,0.1,-1.01,28.81,5.62,0.61,22.31,-24.39,10.8,2
-0.13,0.07,0.98,3.11,1.95,0.67,18.82,1.29,-40.53,1
-0.01,-1.01,-0.12,4.88,-13.31,2.01,20.06,16.19,-0.62,3
0.99,0.08,0.04,13.37,-4.82,0.73,44.2,-14.76,-26.75,5
0.99,-0.03,-0.03,1.89,-2.32,1.77,45.03,-21.26,-9.88,5
-0.06,-0.15,0.98,0.24,-8.18,0.55,20.52,6.59,-38.53,1
0,0.03,-1.01,-2.38,-5.31,10.44,24,-24.13,11.6,2
1.01,0.02,0.09,12.33,4.21,-1.65,45.74,-13.43,-4.09,5
0.92,0.05,0.35,6.77,28.02,-5.86,46.97,-13.16,-11.78,5
-0.98,0.08,0.19,-5.07,-30.27,-0.12,-7.32,1.21,-25.31,4
-0.03,-0.01,0.99,-0.61,-4.15,0.49,20.09,4.66,-39.37,1
-0.03,0.91,-0.45,-14.71,0.18,0.18,19.8,-35.33,-14.48,3
-0.95,0.04,0.06,11.11,24.17,8.24,-7.21,-7.06,-4.3,4
0,-0.72,0.67,-9.64,-10.25,-0.98,21.98,17.75,-22.34,3
-0.35,-0.05,-0.95,4.27,-3.23,1.1,15.17,-21.26,10.86,2
-1,0.01,0.05,7.02,-2.99,2.62,-9.53,-5.16,-3.59,4
0.05,0,0.99,0.49,-2.75,0.92,22.71,3.03,-39.51,1
-0.02,0.03,1,3.23,-2.69,1.04,21.2,2.8,-39.36,1
0.15,0.08,0.98,2.01,-13,2.5,27.71,0.17,-40.1,1
0.12,0.04,0.99,6.77,3.54,-4.03,26.99,-0.18,-38.78,1
-0.86,-0.41,-0.36,4.15,4.58,2.56,-2.14,13.22,-13.53,4
-0.11,0.01,0.99,3.66,-4.82,1.04,19.18,2.43,-40.1,1
0,0.98,-0.12,3.48,-2.81,1.71,22.69,-34.94,-24.04,3
0.99,0.11,0,4.76,-2.99,1.34,44.92,0.46,-13.53,5
-0.1,-0.31,-0.94,-13.24,-4.7,-2.08,20.5,-13.29,14.81,2
0.02,0.04,0.97,9.58,-5.8,0.31,20.54,3.31,-40.08,1
0.11,-0.93,0.32,0.98,-0.67,18.49,22.06,19.69,-11.68,3
0,-0.03,-1.01,2.93,-3.85,1.95,23.52,-21.45,10.99,2
-0.01,-0.01,1,4.09,-2.99,4.64,20.95,3.53,-39.93,1
-1,-0.01,-0.09,-10.07,-33.02,-2.62,-8.83,3.56,-18.91,4
0.06,-0.79,0.61,13.24,-2.08,1.53,23.28,18.26,-20.48,3
-0.14,0.97,-0.08,-12.57,17.15,-2.08,18.97,-34.94,-23.75,3
-0.93,-0.36,-0.05,-2.75,-24.78,-9.34,-2.82,12.61,-15.43,4
-0.95,-0.05,0.3,22.77,-17.09,27.16,-6.36,6.12,-24.87,4
0.04,-0.07,-1,7.75,1.34,-2.01,23.16,-19.69,11.55,2
-0.24,-0.04,-1.02,-18.55,18.8,5.37,17.42,-21.56,12.27,2
-0.99,-0.08,-0.16,3.42,-2.5,-0.18,-7.03,8.23,-9.92,4
-0.02,0.18,-1.02,-17.94,-7.87,-2.2,22.28,-26.07,9.11,2
-0.22,-0.95,0.15,-10.25,6.23,15.2,17.97,19.29,-8.48,3
0.99,-0.07,-0.04,58.72,-1.89,9.83,45.39,-19.75,-9.8,5
-0.2,0.97,-0.1,-0.67,-3.85,-0.37,18.29,-34.92,-24.37,3
-0.3,0.94,-0.01,30.15,15.08,9.64,17.48,-32.87,-25.39,3
-0.24,-0.02,-0.99,3.66,-3.6,2.5,17.91,-20.35,12.43,2
-1,0.02,0.06,15.87,-6.84,-2.69,-9.66,-14.31,-5.24,4
0,-0.01,0.99,4.15,-2.69,1.53,21.13,3.59,-38.89,1
-0.4,0.1,-0.92,-15.81,5.13,-7.69,10.3,-24.37,8.91,2
1,-0.02,-0.05,19.96,-1.46,11.9,46.91,-22.71,-14.79,5
0.07,-0.16,-0.97,1.71,-4.03,1.65,24.98,-17.4,13.55,2
-0.35,-0.94,0.22,15.08,5.68,4.64,15.39,19.36,-10.38,3
0.03,0.1,0.99,5.49,-2.75,0.98,22.24,0.84,-40.22,1
-0.31,0.93,0.08,-45.9,-29.48,3.78,19.41,-35.44,-26.01,3
0.98,0.04,-0.02,10.74,-3.23,0.43,44.71,-17.48,-24.49,5
0.07,0.97,-0.1,1.65,-2.2,0.49,24.3,-35.6,-25.2,3
0.97,-0.2,0.01,9.28,-4.46,-5.55,44.78,-7.7,-3.04,5
-0.99,-0.03,-0.07,3.42,-2.81,2.5,-8.76,-9.94,-24.06,4
0.03,0.04,-1.02,38.94,28.44,-4.39,22.95,-22.19,9.8,2
0.15,0.52,-0.84,14.04,5,9.77,25.4,-34.48,1.06,2
0,0.98,-0.12,3.11,-2.75,1.28,22.71,-34.88,-24.16,3
0.82,0.33,0.53,7.87,-2.75,40.41,47,-21.52,-13.87,5
0.24,-0.04,0.96,8.3,-19.35,3.05,28.37,3.67,-37.63,1
0,0.98,-0.11,3.72,-3.48,1.34,22.79,-35.41,-23.74,3
0.08,-1,0.07,29.79,-27.28,0,25.13,17.18,-5.16,3
-0.99,-0.02,-0.15,21.48,34.12,25.51,-8.96,3.56,-15.99,4
-0.95,0.18,0.28,8.97,6.1,37.35,-9.88,-0.34,-23.07,4
-0.98,0.03,0.1,79.1,-6.47,9.7,-8.4,-1.06,-7.58,4
-0.07,0,1,3.05,0.12,0.49,20.41,2.58,-38.77,1
-0.02,0,0.98,8.42,-2.01,4.27,17.92,4.72,-38.4,1
-0.96,0,0.08,71.47,6.59,-2.2,-9.13,-14.87,-7.64,4
0.04,-0.03,-1.04,-15.99,-2.62,4.82,23.19,-20.5,12.21,2
0.98,-0.04,0.06,5.92,-14.65,-7.39,46.86,-12.43,-5.83,5
-0.02,0.09,-1.01,8.12,-1.71,1.22,23.22,-24.69,10.99,2
-0.08,0.14,1.01,2.08,9.34,-0.79,20.61,-0.82,-40.73,1
-0.93,-0.38,-0.01,-7.45,-20.39,-9.28,-2.28,12.99,-15.76,4
-0.89,-0.44,-0.19,-0.37,-14.4,-19.65,-1.38,13.5,-14.9,4
-1,-0.03,-0.04,0,1.16,8.79,-8.67,5.76,-13.73,4
-0.11,0.01,1,0.06,-3.97,-0.49,19.37,3.28,-39,1
0.17,-1,0.09,-2.69,0.12,16.3,25.5,17.63,-4.41,3
0.17,0.07,0.97,22.09,3.85,-4.33,25.98,1.12,-40.2,1
-0.35,-0.06,-0.95,3.66,-3.66,2.08,15.28,-21.41,11.71,2
-1,0.02,0.02,7.14,-3.36,13.49,-5.46,-22.47,-14.31,4
-1,0.01,0.1,4.76,-3.85,1.95,-7.65,-6.19,-3.61,4
0,0.98,-0.12,4.88,-2.81,1.77,23.23,-35.16,-23.11,3
0,0.04,-1.01,2.01,-2.5,1.53,22.97,-23.6,11.65,2
-0.02,-0.01,0.99,2.69,-3.97,-0.06,18.36,5.43,-39.82,1
-0.25,-0.18,-0.97,7.26,-9.83,0.31,16.35,-16.98,13.06,2
1,0.08,0,36.8,-4.94,5.8,45.67,-0.35,-13.57,5
0.02,0.08,0.99,3.97,-3.78,0.31,23.05,1.05,-39.34,1
0.13,0.77,-0.63,4.58,2.56,3.72,23.13,-37.12,-8.54,3
-1.01,-0.05,0.03,7.08,-0.61,-1.1,-6.86,-20.81,-13.73,4
0.22,-0.07,-0.98,3.78,-1.16,0.92,27.81,-20.08,10.49,2
0.99,-0.1,0.06,49.74,-5.07,-13.67,45.09,-8.44,-2.53,5
-0.03,0.1,-1.01,14.4,-5.92,-6.59,23.77,-25.11,10.14,2
0.08,0.02,-1.01,4.03,-3.6,1.95,24.62,-22.24,9.99,2
-0.33,-0.05,-0.96,4.7,-0.12,0.55,15.48,-22.29,11.35,2
-0.19,0.96,-0.11,1.46,-4.7,-3.78,18.46,-35.95,-23.5,3
-0.1,0.16,0.96,-35.52,6.71,0.98,19.96,-2.77,-42.3,1
0.22,0.48,0.84,22.46,-5.55,3.78,29.64,-11.55,-40.56,1
0.98,0.07,0.06,9.28,-3.05,-0.43,45.47,-3.27,-7.37,5
-0.12,0.93,-0.4,23.74,29.97,11.23,18.15,-37.07,-16.61,3
0.92,0.09,-0.38,-29.72,15.56,-36.01,36.13,0.32,3.66,5
-1,-0.08,0.04,6.53,-2.69,0.06,-11.57,-15.65,-10.71,4
0.97,-0.17,-0.02,-0.37,-4.7,3.48,44.51,-8.97,-2.45,5
0.02,0.12,0.98,2.93,-3.17,1.28,22.35,-0.59,-40.94,1
0.25,-0.15,-0.98,-25.63,-7.93,0.06,25.26,-17.21,12.11,2
-0.36,-0.89,0.36,30.82,1.89,-10.62,14.64,19.7,-14.89,3
0.28,-0.93,0.24,6.47,-3.17,1.1,28.82,16.88,-8.08,3
0.13,0.97,-0.16,15.26,-3.6,-4.27,28.98,-35.49,-21.9,3
0.96,-0.26,-0.03,3.11,-1.65,1.77,45.25,-8.18,-2.38,5
-0.99,-0.09,-0.17,5.68,-1.95,1.65,-7.09,7.46,-10.11,4
0.08,-0.81,0.62,-8.06,-2.44,0.79,23.28,18.58,-20.29,3
-0.02,-0.02,-1,11.47,-6.04,-0.85,23.54,-22.6,11.6,2
-0.02,0,0.99,3.97,-2.01,1.1,18.43,5.98,-39.09,1
-0.04,-0.76,-0.63,2.26,-3.48,3.05,21.74,2.71,11.79,3
-0.27,-0.12,-0.99,-24.17,-37.17,17.09,16.03,-17.54,12.57,2
-0.16,0.09,0.95,-3.78,15.2,6.1,19.35,-0.45,-41.54,1
-0.05,0.88,-0.49,44.8,23.86,17.4,19.2,-36.61,-13.01,3
0,0.96,0.37,1.46,-5.37,-7.32,23.44,-28.38,-34.73,3
-0.27,-0.92,0.32,12.82,-13.49,0.73,16.38,19.9,-13.32,3
-0.02,0.02,-1.01,1.46,-3.85,3.42,22.6,-22.88,11,2
-0.01,-0.64,0.77,6.53,-2.56,0.24,22.28,16.02,-26.61,3
0.06,-0.83,0.56,23.74,-2.99,-1.22,22.97,19.17,-18.41,3
0.02,-0.49,-0.9,47.85,-45.78,18.13,22.4,-8.29,14.77,2
-1.01,-0.04,0.09,-36.68,3.66,-3.42,-9.56,-17.59,-13.85,4
-0.02,0.08,-1.01,5.25,-2.5,0.85,23.19,-24.26,10.58,2
0.24,-0.54,-0.81,20.51,-4.64,6.47,30.35,-7.31,13.04,2
0.97,-0.17,-0.02,3.36,-3.85,2.26,44.92,-9.63,-3.11,5
0.99,0.01,0.07,20.57,-2.14,3.42,45.79,-2.66,-5.98,5
-0.26,-0.94,0.25,8.79,10.19,2.75,14.23,18.25,-9.52,3
0.97,-0.2,-0.04,4.88,-3.17,1.1,45.02,-9.86,-1.76,5
-0.98,-0.07,-0.15,8.67,16.11,-30.15,-8.54,4.96,-16.04,4
0.21,-0.61,-0.79,11.35,-4.33,4.15,28.81,-4.46,11.25,2
0,0.96,0.31,6.84,-3.11,0.79,24.08,-30.02,-34.47,3
-0.02,0.08,-1.01,4.03,-2.99,1.53,23.66,-23.69,11.07,2
0.8,-0.13,-0.58,-4.88,47.91,-8.67,32.01,-7.26,9.35,5
0.08,0.02,-1,3.78,-3.48,1.46,24.05,-22.4,10.44,2
0.98,-0.02,-0.06,-22.95,-2.87,-0.73,44.96,-21.45,-11.89,5
-1,-0.07,0.11,-30.52,-2.99,5.19,-11.72,-3.02,-4.25,4
0.99,-0.13,0.06,3.97,-2.87,0.55,45.85,-11.29,-4,5
-0.08,0.02,0.99,-2.01,-4.94,2.62,19.54,2.72,-40.08,1
0.8,-0.22,-0.42,-110.78,5.74,48.4,40.94,-14.54,4.66,5
0.05,0.04,-1,3.42,-4.03,1.77,23.61,-22.74,11.05,2
-0.91,0.01,-0.43,7.39,-1.89,0.98,-9.35,3.52,-9.35,4
-0.98,-0.06,-0.09,-34.85,0.79,-0.55,-9.92,-11.27,-23.89,4
0.17,0.48,0.85,-2.93,5.62,-2.14,27.76,-11.63,-41.15,1
-0.37,0.07,-0.94,-0.55,-3.66,2.62,13.17,-22.3,10.03,2
-0.03,0.52,-0.85,8.36,-15.44,3.42,22.79,-34.4,0.11,2
-0.88,0.18,-0.49,11.96,19.23,23.86,-9.67,-3.22,-9,4
-0.01,-0.01,0.99,3.91,-3.11,1.71,22.68,1.68,-39.18,1
0.87,-0.32,-0.26,-3.78,-31.31,13.18,40.66,-6.23,4.85,5
-0.05,0,0.98,-39.06,-12.02,4.52,21.29,2.61,-39.67,1
-0.99,-0.19,-0.17,13.85,25.21,14.04,-6.73,8.64,-14.75,4
-0.89,0.45,-0.16,-5.49,-10.25,0.43,-10.77,-9.89,-16.67,4
-0.01,0.09,-1,4.58,-2.62,1.34,23.95,-24.51,10.91,2
-0.91,0.35,0.09,29.72,22.71,25.94,-11,-5.77,-20.67,4
0.24,-0.12,-0.97,0.85,-3.54,0.98,29.04,-17.99,11.55,2
-0.28,0.95,0.04,26.55,17.46,-4.46,18.77,-33.91,-25.48,3
0.25,0.94,-0.02,12.39,-5.37,-5.49,27.81,-30.03,-24.58,3
0.99,0.03,-0.04,26.86,-2.2,4.03,44.75,-19.01,-22.27,5
-0.31,-0.89,0.19,9.58,-1.83,1.34,15.56,19.67,-9.83,3
0.1,-0.09,-1,-24.41,3.23,-2.44,25.82,-19.8,12.19,2
0.98,0.01,0.08,6.96,-3.05,2.08,42.83,-5.55,-28.16,5
0.23,-0.96,0.16,-4.52,-3.42,13.61,26.75,17.83,-5.51,3
0.78,-0.61,-0.18,6.53,-1.77,0.49,39.26,2.71,1.94,5
-0.3,0.94,-0.02,16.85,13.98,-5.55,17.94,-34.11,-25.76,3
0.98,-0.11,0.04,12.51,-2.62,-0.18,43.16,4.28,-11.41,5
0.26,-0.92,0.34,1.77,-3.23,2.75,27.97,17.29,-10.73,3
0.05,-0.02,0.99,4.58,-5.68,1.59,24.08,3.28,-38.26,1
0.98,0.01,0.05,0.98,-4.09,3.36,44.95,-11.47,-2.7,5
0.75,0.01,-0.68,30.03,6.16,62.32,46.67,-9.38,-5.9,5
0.85,-0.43,-0.24,7.87,-44.19,3.23,34.31,8.67,1.93,5
-0.06,-0.02,0.99,1.22,-6.65,1.77,20.46,3.74,-39.98,1
-0.88,-0.21,0.46,8.24,13.79,0.12,-2.87,10.93,-24.84,4
-0.1,-0.4,-0.93,-0.31,-3.78,0.49,20.34,-10.88,14.59,2
0.03,0.1,0.99,3.72,-3.11,0.98,22,1.45,-39.4,1
0.97,0.11,-0.11,0,21.42,-2.5,43.85,-16.72,-1.72,5
0.26,-0.35,-0.93,19.41,8.67,-7.26,26.37,-11.83,12.51,2
1.05,-0.03,-0.06,-13.12,-12.39,12.08,44.97,-12.79,-2,5
-0.08,-0.38,-0.93,46.57,-7.57,3.48,20.37,-10.88,14.44,2
-0.02,0.89,-0.45,3.42,-3.3,-3.78,20.92,-35.61,-14.44,3
0.98,0.08,0,5.43,-2.69,2.32,44.98,1.11,-13.13,5
-0.01,0.47,0.87,-0.12,-2.32,1.71,23.74,-11.71,-43.14,1
0.21,-0.95,-0.01,33.75,-12.21,-19.29,29.52,15.58,-3.59,3
-1,0,0.11,4.88,-0.31,2.69,-8.06,-5.3,-4.7,4
0.09,0.98,-0.14,8.24,0.98,-1.22,26.88,-35.58,-23.18,3
-1.01,-0.04,0.03,-7.14,-2.5,4.46,-11.34,-15.12,-9.73,4
-0.98,-0.23,-0.08,4.64,0.49,42.72,-4.79,9.67,-18.81,4
-0.93,0.09,-0.38,12.33,18.68,4.33,-10.19,0.07,-11.07,4
-0.28,-0.95,0.25,8.97,9.77,3.36,13.96,18.73,-9.77,3
0.98,0.01,-0.02,8,-0.43,-0.12,44.75,-19.21,-22.16,5
-0.01,0.08,-1,4.52,-3.05,1.4,23.39,-24.29,9.73,2
-1.01,-0.05,0.04,3.72,-2.26,0.73,-10.79,-15.43,-10.02,4
0.99,-0.08,0.02,28.69,-2.56,0.55,44.19,2.78,-11.02,5
0.76,0.02,0.65,3.54,-6.1,2.2,46.17,-13.71,-20.54,5
0.9,-0.4,0.19,15.69,5.68,-11.54,45.57,-2.75,-9.14,5
0.29,0.13,0.94,2.14,-2.08,1.95,29.31,-0.79,-39.53,1
-0.97,0.09,-0.13,-57.62,-10.44,6.29,-9.72,1.79,-20.06,4
-1,-0.03,-0.07,4.21,-1.16,1.59,-8.97,-10.18,-24.38,4
-1,-0.06,0.01,3.91,-2.99,2.87,-6.6,-20.58,-13.49,4
0.21,-0.12,-0.98,2.08,-2.56,2.01,26.66,-17.54,12.07,2
-0.09,0.97,-0.14,3.17,-6.77,-10.31,20.9,-35.95,-23.06,3
-1,-0.01,0.06,2.01,-3.42,-1.16,-8.69,-5.77,-3.41,4
-1,0.02,0.12,35.77,-22.16,-31.68,-8.74,4.92,-14.99,4
-0.04,-0.22,-0.99,21.42,-2.2,1.89,21.45,-15.69,14.27,2
0.74,-0.16,-0.64,6.47,21.55,-5.31,29.92,-6.25,11.16,5
0.06,0.98,-0.08,3.23,-2.75,0.79,23.78,-35.18,-25.92,3
-0.04,0.01,1,-5.8,-2.5,0.98,22.03,0.6,-40.76,1
-1.02,0.12,-0.1,-29.36,-8.97,-20.94,-10.08,-1.87,-21.12,4
0.03,0.11,0.99,6.29,-3.66,1.89,22.11,0.93,-40.95,1
0.15,0.94,-0.15,0.98,-13.12,-7.08,28.63,-35.29,-21.55,3
-0.87,-0.28,-0.39,16.78,6.23,28.5,-4.75,10.02,-11.91,4
-0.94,0.06,-0.09,-106.57,-17.94,1.53,-9.88,-1.44,-21.85,4
0.78,-0.38,0.55,-57.13,-13,63.35,47.47,-5.11,-18.69,5
0.97,-0.26,-0.23,10.13,-58.72,57.8,38.64,6.12,-1.98,5
-0.23,0.93,-0.31,10.68,21.97,5.86,16.28,-35.99,-18.51,3
-0.28,-0.95,0.25,7.51,13.43,3.11,14.15,18.58,-9.24,3
0.03,-0.05,-1,8.73,-1.04,3.72,24.12,-20.84,12.24,2
-0.01,0.03,0.98,10.31,-8.3,3.91,20.48,3.11,-39.05,1
0.03,0.05,0.96,12.63,-8.3,4.64,23.24,1.67,-38.17,1
-0.04,0.96,-0.3,-5.98,-3.05,1.77,20.74,-34.94,-17.82,3
-0.98,-0.1,-0.15,6.9,-0.85,-1.1,-7.32,7.62,-9.53,4
0.39,-0.01,0.91,2.62,-3.91,1.71,31.67,3.14,-37.39,1
0.99,-0.04,-0.03,7.87,-3.23,0.85,45.47,-20.63,-9.03,5
0.98,-0.07,-0.13,3.6,-0.79,-4.33,43.53,-13.01,0.74,5
0.23,0.53,0.78,5.37,-4.03,0.79,29.9,-13.6,-40.28,1
0.05,0.01,0.99,2.62,-2.38,1.71,22.51,3.76,-38.98,1
-0.02,0.39,-0.93,3.11,-1.83,0.55,22.11,-29.88,4.87,2
-0.02,0.08,-1.01,5,-2.87,1.4,23.71,-24.06,10.27,2
-0.01,-0.94,-0.28,30.46,-5.13,0.18,22.25,11.88,4.39,3
-0.34,-0.92,0.26,3.85,-2.93,1.59,12.59,18.2,-9.83,3
-0.99,-0.07,0.02,-1.46,-1.59,-1.1,-11.69,-15.25,-9.97,4
-0.99,0.01,0.05,3.36,-3.05,1.16,-9.22,-5.29,-4.13,4
-0.06,-0.99,-0.05,-17.88,4.94,-10.8,23.68,16.52,-2.71,3
-0.95,-0.2,0.21,-15.01,-44.43,-26.79,-4.59,9.11,-22.83,4
0.97,-0.2,-0.05,3.17,-2.5,1.46,44.29,-8.75,-2.19,5
-0.99,0.05,-0.05,-47.24,-8.85,-5.43,-9.88,3.78,-18.35,4
0.84,0.12,-0.54,6.1,-1.89,-3.97,34.05,-13.46,9.88,5
-0.03,-0.8,-0.63,2.56,-2.75,1.34,20.34,4.86,11.3,3
0.17,0.97,-0.08,39.61,-28.93,-6.1,26.32,-32.82,-26.27,3
-1,0,-0.01,-34.48,-5.49,3.6,-8.95,3.3,-4.41,4
0.23,0.5,0.82,2.81,-3.85,2.32,29.77,-11.5,-41.03,1
0.99,-0.09,0.04,-3.91,1.83,0.73,45.75,-8.81,-2.42,5
-0.26,-0.94,0.27,6.96,13.31,4.27,14.32,18.49,-9.56,3
-0.04,-0.78,-0.63,0.49,-4.7,2.2,20.32,3.55,10.72,3
0.85,-0.42,-0.25,18.31,49.44,22.52,40.97,-4.09,3.25,5
0.1,-0.1,-0.98,-5.86,-8.36,-1.53,26.7,-20.4,12.67,2
0.81,0.57,-0.07,6.9,-5.19,-0.18,38.96,-25.26,-1.05,5
-0.23,0.11,0.96,5.68,-1.89,0.55,17.68,-1.73,-41.19,1
0.21,-0.92,0.37,1.59,-8.97,10.13,26.16,18.44,-12.18,3
0.17,-0.14,-0.98,2.5,-2.32,1.4,27.64,-18.38,12.28,2
-0.01,-0.7,0.71,2.93,-4.39,2.69,21.85,16.78,-23.02,3
0.04,-0.04,-1.02,1.53,-5.31,0.73,23.52,-21,12.22,2
-0.03,-0.86,-0.54,-34.91,1.71,4.33,21.04,7.21,9.22,3
0.25,-0.92,0.33,2.93,-2.44,1.34,28.27,17.66,-11.08,3
0,0.98,-0.11,4.03,-2.81,1.28,22.97,-35.71,-24.44,3
0.08,0.02,-1.01,4.88,-2.38,1.65,24.67,-22.01,10.95,2
-0.02,0.08,-1,16.3,-4.09,-2.5,23.58,-24.05,9.99,2
0.97,-0.01,-0.03,24.72,-6.53,-2.26,44.89,-21.36,-10.17,5
-0.03,0.4,0.9,5.86,-1.71,-0.18,21.78,-8.72,-42.38,1
0,-0.03,-0.99,2.26,-4.7,2.99,23.14,-21.69,12.5,2
-0.99,0.1,-0.01,-103.03,4.09,-9.46,-9.84,2.1,-7.06,4
-0.99,0.05,-0.06,13.67,17.09,4.15,-9.62,2.54,-16.98,4
0.97,-0.01,0.12,7.08,-2.38,1.89,42.72,-5.55,-28.83,5
-0.06,0.05,-0.99,2.75,28.93,-3.42,21.02,-22.4,11.28,2
-0.03,-0.78,-0.63,2.32,-3.17,2.44,20.12,4.25,10.16,3
-0.09,0.94,-0.2,34.18,-4.82,5,21.56,-35.02,-20.89,3
0.03,0.12,0.97,42.97,-9.7,1.65,23.17,-0.84,-40.33,1
-1.01,-0.04,-0.08,3.36,-4.82,1.28,-9.53,-9.9,-24.73,4
-0.12,0.04,0.98,-19.04,-12.82,0.79,18.6,2.26,-39.73,1
0.07,0.82,-0.63,27.65,13.85,13.79,21.41,-37.57,-10.25,3
0.98,0.1,0,4.03,-3.3,2.38,45.25,0.61,-12.94,5
-0.01,0.02,0.99,0.79,-3.6,-1.34,20.68,2.77,-39.09,1
0.01,0.29,-0.96,-4.52,-3.48,1.95,22.9,-28.98,6.59,2
0.77,0.01,0.62,6.71,-1.4,1.04,46.17,-13.48,-20.92,5
0.99,-0.04,0.05,5.07,0.49,1.46,45.43,-11.56,-4.15,5
0.15,0.25,0.96,-10.93,12.94,-0.55,26.62,-4.35,-41.13,1
0.01,0.1,1,-21.61,-1.34,8.85,23.33,0.43,-40.03,1
-0.02,0.08,-1.01,3.97,-2.93,1.65,23.54,-24.21,10.36,2
0.2,0.08,0.96,2.56,-2.01,2.2,29.69,-1.95,-39.29,1
0.99,0.01,0.09,4.52,-3.17,2.87,42.85,-6.21,-27.58,5
0.03,0.98,-0.13,5.19,5.19,27.83,23.66,-35.36,-23.21,3
-0.18,-0.03,0.98,2.75,-2.56,0.61,18.53,3.11,-38.95,1
-0.02,-0.04,-1.01,-19.47,-5.43,5.68,23.24,-21.23,12.92,2
-0.95,-0.09,0.1,7.75,-7.93,-3.72,-10.96,-10.89,-6.32,4
-1.01,-0.07,0.01,-0.49,-5.37,8.24,-7.45,-19.4,-13,4
0.77,-0.12,-0.63,6.96,7.51,7.63,31.73,-9.12,10.9,5
-0.99,0.09,-0.11,-133,-0.85,-2.5,-9.27,1.33,-5.69,4
0.01,-0.3,-0.97,59.51,-9.95,0.61,22.22,-12.89,14.78,2
-0.13,0.06,0.99,2.87,-3.11,1.22,19.07,1.37,-39.88,1
-0.05,0.03,-1.01,5.43,-3.05,1.04,21.78,-22.19,11.43,2
-0.96,-0.04,-0.04,33.94,-7.08,-1.95,-10.03,-8.69,-25.93,4
0.97,-0.2,-0.06,3.23,-2.81,1.95,44.68,-8.87,-2.27,5
-0.02,0.08,-1.01,4.64,-2.62,1.1,23.3,-24.16,10.31,2
-0.07,-0.37,-0.92,16.24,5.68,-3.23,20.97,-11.07,13.96,2
-0.11,0.05,0.99,1.04,-12.39,2.87,19.12,1.21,-40.31,1
-0.01,0.07,-1.02,-15.08,-13.18,0.12,21.72,-23.43,10.9,2
-0.12,0.02,0.99,2.69,-1.71,0.18,19.42,1.81,-40.26,1
0.09,-0.99,0.12,17.46,-13.37,2.26,24.51,18.07,-6.03,3
-0.36,-0.26,-0.91,-0.67,-2.99,-2.56,16.31,-15.63,13.75,2
-0.95,-0.27,-0.22,13.61,-35.16,12.7,-3.37,11.19,-12.84,4
0.02,0.12,0.98,3.91,-3.42,0.85,22.09,-0.37,-40.1,1
0.14,0.02,0.97,6.23,1.16,-2.93,26.59,2.2,-38.93,1
1,-0.01,0.14,83.25,4.76,-10.8,47.72,-12.34,-5.36,5
-0.01,0.08,-1.01,4.15,-2.99,1.59,23.45,-24.4,9.75,2
-0.97,0.03,0.11,7.57,-5.62,2.69,-13.01,1.68,-5.15,4
-0.23,0.11,0.96,0.43,-3.23,1.22,17.71,-1.64,-40.41,1
-0.01,-0.17,-1.04,1.71,-41.44,7.26,22.66,-17.69,13.59,2
-1,-0.1,-0.08,-64.64,-9.28,8,-7.74,6.82,-16.93,4
-0.87,-0.46,-0.2,13.37,-19.47,-14.22,-0.42,14.65,-15.25,4
-0.05,0.01,-1.01,3.91,-2.44,2.56,22.25,-21.11,11.68,2
-0.95,-0.13,0.12,-36.25,20.69,4.58,-11.63,-11.56,-8.69,4
-0.14,-0.15,-0.98,-32.71,-8.91,4.7,19.14,-17.76,13.02,2
0.06,0.98,-0.08,-1.77,1.95,-1.1,24.32,-35.62,-23.58,3
-0.03,-0.93,-0.41,46.63,-2.69,-7.08,20.32,9.56,7.59,3
-0.02,-0.41,-0.93,3.23,-2.93,1.46,22.83,-11.19,13.98,2
-0.32,-0.97,0.13,-2.75,9.16,-11.9,14,18.73,-5.2,3
0.02,-0.05,-1.01,3.23,-2.62,1.83,23.45,-20.25,11.01,2
-0.11,0.03,0.98,3.6,-2.93,0.79,19.34,1.67,-40.33,1
-0.38,0.18,-0.91,3.48,-2.2,0.37,11.43,-27.94,7.47,2
0.03,0.98,-0.01,20.39,3.23,27.22,25.81,-32.95,-25.26,3
-1,-0.06,0.02,-0.37,-4.82,11.29,-6.8,-20.45,-14.28,4
-0.04,0.35,0.91,-26.25,-0.67,2.69,21.45,-6.85,-43.08,1
-0.95,0.08,-0.4,1.34,-12.63,4.21,-9.18,0.34,-11.82,4
-0.01,0.44,0.88,22.95,-4.21,-0.37,22.91,-10.6,-41.94,1
-1.01,0.04,-0.08,3.97,-29.17,-24.78,-9.22,2.84,-17.37,4
-1.02,-0.03,-0.07,-11.78,-1.71,-0.61,-9.2,-11.65,-25.18,4
0.06,0,-1.01,7.51,-1.77,1.28,24.49,-21.51,11.34,2
0.94,0.25,0.11,46.88,-39.55,12.33,45.14,-10.94,-5.43,5
-0.01,-0.03,-1,3.54,-4.03,1.46,23.14,-21.92,11.23,2
1,-0.11,0.06,1.89,-4.33,4.52,42.61,4.76,-12.95,5
-0.97,-0.06,0.07,71.41,0.37,1.22,-8.59,6.16,-15.89,4
-0.02,0.08,-1.01,4.21,-2.62,1.71,23.5,-24.21,10.64,2
0.21,0.01,0.97,2.32,-3.78,1.59,28.55,1.54,-38.42,1
-0.93,0.08,0.32,37.78,-1.89,34.3,-6.62,2.69,-26.84,4
-0.19,0.01,0.97,3.66,-4.03,1.34,18.15,2.37,-39.94,1
-1,-0.03,-0.08,4.09,-0.92,1.95,-9.14,-10.36,-24.87,4
-0.02,0.09,-1.01,-11.72,-8.48,0.31,21.77,-23.45,10.74,2
0.93,0.12,0.3,18.98,-33.33,-23.19,47,-15.65,-12.1,5
-0.97,-0.01,0.12,113.1,-0.79,-15.75,-9,1.61,-7.62,4
-0.03,0.1,-1.01,40.77,-3.42,-1.83,23,-25.45,10.13,2
-0.29,0.91,-0.2,-52.61,-44.62,2.5,18.51,-37.19,-19.68,3
-0.36,0.05,-0.96,-38.21,-20.87,5.55,14,-21.69,11.4,2
0,0.98,-0.11,4.15,-3.11,1.34,22.66,-35.14,-23.13,3
0.07,0.98,-0.08,4.09,-2.38,1.1,23.91,-35.96,-24.8,3
0.97,0,0.05,17.76,-4.58,-0.31,45.15,-1.73,-8.25,5
-0.01,0.94,-0.24,-2.81,-4.82,0.67,21,-34.83,-19.82,3
-0.29,-0.87,0.26,-1.71,4.76,6.77,15.21,19.52,-10.71,3
0,0.98,-0.11,4.82,-3.36,1.34,23.32,-35.17,-24.83,3
0.99,0.08,-0.01,10.31,-3.6,4.09,44.52,1.11,-12.76,5
-0.37,0.21,-0.93,16.11,4.21,8,13.73,-28.49,6.63,2
0.78,-0.09,-0.53,7.14,17.27,15.93,33.06,-10.83,10.51,5
-0.04,0.86,-0.53,13.55,-1.83,1.83,20.52,-34.85,-11.95,3
0.11,-0.11,-0.97,33.57,8.54,2.56,25.85,-19.57,12.51,2
-0.92,-0.37,0.01,-0.06,-32.71,-0.92,-2.16,12.92,-16.59,4
0.93,-0.26,0.18,6.84,-16.72,-2.99,46.26,-6.29,-7.58,5
0.23,0.96,-0.01,10.74,10.68,2.62,29.96,-32.93,-25.94,3
-0.98,-0.17,-0.06,-2.56,19.23,-13.31,-6.49,8.78,-17.36,4
0.78,0.04,0.61,-2.75,13.12,3.97,46.25,-12.99,-19.41,5
0.31,-0.02,-0.97,9.28,1.16,-1.34,32.54,-23.06,9.92,2
0.03,0.09,0.98,3.85,-3.3,0.73,21.84,1.77,-40.87,1
-1.02,-0.08,0,85.08,11.23,24.9,-8.69,-0.56,-26.54,4
-0.99,-0.09,-0.16,5.43,-2.2,2.14,-7.12,7.96,-10.24,4
0.81,-0.59,-0.18,2.99,-9.03,20.57,40.12,1.68,1.89,5
0.19,0.93,0.3,39.67,-17.21,8.73,24.88,-28.56,-33.41,3
-1,-0.04,0.08,104,5.31,-1.22,-8.96,5.36,-13.4,4
-0.04,0.87,-0.48,19.53,-3.36,-1.28,21.24,-35.88,-13.49,3
-0.14,0.04,-1,-7.93,1.89,3.11,18.7,-22.62,11.39,2
-0.01,-0.01,0.99,4.27,-3.05,1.34,20.92,3.77,-39.42,1
0.28,-0.48,-0.9,44.56,-10.68,11.11,31.01,-10.19,12.66,2
0,0.83,-0.51,27.77,17.82,12.51,20.1,-37.85,-12.61,3
-1,-0.06,0.01,5.49,-4.09,4.88,-6.88,-21.04,-13.64,4
1,0.04,0,3.48,-3.23,-2.32,45.19,1.23,-13.11,5
-0.11,0.03,0.99,3.23,-2.01,0.98,19.15,2.2,-39.66,1
-0.01,-0.96,-0.32,44.43,-5.19,-3.05,20.9,11.35,4.68,3
0.02,0.07,0.99,4.09,-2.44,0.85,23.1,1.62,-40.95,1
0.03,0.96,-0.09,4.09,-1.4,-12.76,26.78,-35.22,-22.86,3
-0.03,0.52,-0.87,-2.08,-16.85,3.78,22.79,-34.31,0.74,2
0.78,-0.6,-0.16,4.46,-1.95,0.98,39.4,2.5,1.82,5
-0.35,-0.28,-0.9,0.18,-3.97,2.2,16.42,-14.87,14.23,2
0.29,-0.95,0.22,1.16,-2.99,2.08,28.99,16.5,-7.29,3
-0.03,0.09,0.99,3.36,1.83,0.61,20.5,0.4,-40.49,1
1,0.07,0.01,29.48,-6.1,0.06,43.82,-15.16,-26.29,5
0.86,0,0.49,-2.44,-18.01,4.27,47.18,-13.71,-15.81,5
0.81,0.04,0.57,4.21,-2.62,0.85,46.44,-14.16,-18.24,5
0.15,0.93,0.29,-31.07,15.08,4.7,22.9,-28.12,-34.23,3
-1,-0.01,0,64.15,8.79,-4.88,-8.69,5.76,-15.99,4
-0.21,-0.23,-0.95,-39.98,-22.22,11.17,17.4,-15.43,13.57,2
0.99,0.1,0,3.48,-2.2,1.22,44.35,0.72,-14.45,5
-0.02,-0.05,-1.01,-94.3,-27.89,15.26,24.51,-21.97,11.95,2
0.22,-0.09,-0.96,12.33,-7.14,1.46,27.17,-18.55,10.74,2
-1,-0.01,0.03,1.71,-2.01,1.16,-8.75,-5.49,-3.22,4
0.98,-0.08,0.06,-6.1,-2.2,3.11,45.86,-11.62,-3.44,5
-0.02,0.09,-1.01,5.07,-2.38,1.77,23.82,-24.57,10.9,2
-0.38,0.17,-0.91,6.59,-0.73,2.5,11.68,-27.47,7.39,2
0.09,0.97,-0.1,1.4,-11.54,-15.14,27.44,-34.63,-22.27,3
0.96,-0.04,0,7.87,-2.69,-2.44,45.31,-11.65,-3.08,5
-0.06,-0.06,-1,-4.21,37.84,-3.11,22.09,-20.18,11.17,2
-0.03,-0.11,-1.01,-5.31,-2.44,2.62,21.83,-17.8,12.92,2
0.03,-0.05,-1,3.11,-2.14,1.34,23.23,-20.12,11.55,2
0.99,0.1,0.01,-0.24,-2.32,2.38,44.64,0.74,-13.1,5
-0.98,0.04,0.12,-13,-7.63,5.31,-13.21,1.48,-5.6,4
0.1,-0.08,-0.96,2.56,-9.64,3.66,25.13,-20.3,12.67,2
-0.08,0.23,-0.97,61.46,-4.64,-0.55,21.11,-27.08,8.75,2
0.74,-0.1,-0.69,6.71,-6.23,6.77,30.3,-9.58,12.43,5
-0.89,-0.37,0.29,51.64,20.08,26.86,1.05,12.54,-26.12,4
0,0.95,0.29,4.46,-4.46,-0.43,21.96,-28.71,-33.69,3
-0.89,0.43,-0.11,45.29,38.09,12.82,-11.49,-8.5,-16.41,4
-0.02,0.08,-1.01,4.58,-2.81,1.28,23.14,-24.15,10.38,2
-0.03,-0.79,-0.62,5.55,-3.3,0.61,21.4,3.85,10.64,3
0.16,0.07,-1,-38.51,-9.28,0.98,24.98,-23.74,10.45,2
-1,-0.1,0.02,3.66,-1.59,0.85,-11.39,-15.19,-9.62,4
0.28,-0.95,0.23,4.52,-3.17,0.18,28.45,17.68,-8.79,3
-0.3,0.26,-0.93,-16.48,20.32,9.64,16.41,-29.52,7.04,2
-0.01,-0.01,1,4.09,-2.81,1.34,21.07,3.89,-38.24,1
0.01,-0.04,-0.97,0.43,-1.89,0.24,22.96,-20.72,11.5,2
0,-0.01,1.05,5.74,-4.27,-0.73,21.9,3.82,-39.48,1
-0.95,0.09,-0.32,20.08,38.02,21.48,-10.24,-0.74,-12.72,4
-0.04,0.38,0.91,-31.86,1.16,3.85,21.66,-8.83,-42.98,1
-0.34,-0.06,-0.95,5,-3.05,1.28,15.45,-21.28,11.3,2
0.98,-0.11,0.08,3.54,-2.5,1.71,45.61,-11.06,-4.06,5
-1.05,0.14,-0.1,-8.42,-10.25,46.69,-10.17,3.59,-14.45,4
-0.99,-0.18,0.02,64.64,6.77,-4.03,-9.51,-15.95,-13.81,4
-0.94,-0.12,-0.33,-0.92,-12.15,-5.43,-7.18,5.82,-11.21,4
0.99,-0.05,0.05,5.62,-5.62,2.99,44.67,-11.47,-3.47,5
0.03,0.01,-1.03,14.1,2.99,8.24,23.12,-20.61,11.38,2
-1.02,-0.09,-0.04,-66.41,10.25,4.52,-8.97,-15.03,-23.71,4
0.18,0.97,0.04,19.1,9.52,11.96,30.6,-32.09,-27.25,3
-0.34,-0.92,0.26,5.43,-3.11,1.53,13.1,18.48,-9.4,3
-0.97,0.11,-0.2,13.73,25.33,2.81,-10.52,0.44,-15.66,4
0,-0.69,0.74,17.52,-1.4,-1.89,22.49,16.37,-24.85,3
0.98,0.05,0.11,41.63,-1.22,0.55,46.13,-5.68,-6.38,5
0.14,0.02,0.97,5.49,-2.01,0.31,26.32,1.88,-39.36,1
0.05,-0.79,0.62,4.46,-2.26,1.95,22.99,17.77,-20.53,3
-0.91,-0.13,-0.39,4.09,0.79,6.65,-6.58,7.1,-11.79,4
-0.01,-0.01,0.99,3.97,-3.23,1.53,23.57,1.98,-39.64,1
-0.03,-0.01,1,14.1,-5.43,-2.62,18.47,4.81,-40.22,1
0.98,0.09,-0.05,2.32,-1.53,2.5,44.53,0.96,-14.42,5
-0.05,0.03,-1.01,4.64,-2.87,1.46,21.53,-21.86,11.08,2
0,-0.01,-1,4.27,-2.69,0.85,22.72,-21.14,11.85,2
0.18,-0.92,0.36,-1.16,-3.05,8.06,25,18.47,-10.79,3
0.73,-0.22,-0.68,-11.41,12.88,-26.49,29.25,-5.74,10.99,5
-1,-0.01,0.06,5.19,-1.04,0.98,-8.78,-5.36,-3.21,4
0.02,0.24,-0.96,-31.8,-5.07,1.1,22.41,-27.36,6.93,2
-0.02,-0.01,0.99,4.39,-2.14,4.03,21.03,2.98,-39.69,1
-0.01,-0.04,0.96,4.94,-13.92,2.56,21.01,4.37,-39.6,1
0.23,0.34,0.89,-48.34,0.18,3.66,29.65,-7.67,-40.88,1
0.37,0.01,0.94,3.17,-0.06,1.4,30.53,3.04,-36.17,1
-0.02,0.01,0.99,2.69,-3.23,0.37,18.4,5.79,-39.54,1
-0.03,0.88,-0.36,-43.58,20.57,13.37,22.92,-37,-16.21,3
0.01,0.05,-1,7.93,-3.23,0,25.12,-24.8,10.88,2
0.23,0.5,0.82,1.53,-3.48,1.16,29.6,-12.04,-40.77,1
0.31,-0.01,0.93,6.16,-8.3,0.24,29.31,3.32,-37.13,1
-0.1,-0.25,-0.98,20.2,9.4,-4.52,20.28,-14.27,13.22,2
-0.02,-0.42,-0.92,2.81,-1.83,2.14,23.01,-11.38,15.5,2
-0.34,-0.92,0.27,2.93,-2.5,1.46,11.41,18.84,-10.06,3
0.48,-0.36,0.79,-61.71,66.41,-24.48,31.26,11.74,-27.73,5
0.73,-0.47,0.46,-4.03,-22.89,15.93,44.34,2.87,-16.38,5
-0.02,-0.26,-0.97,-6.84,-2.93,2.69,21.86,-14.34,14.37,2
-0.03,0.89,-0.44,2.56,-5.07,0.55,20.65,-34.68,-13.98,3
-0.35,-0.06,-0.95,3.3,-3.66,1.46,15.03,-21.39,11.69,2
0.21,-0.09,0.96,1.89,-2.81,0.79,27.03,4.31,-36.65,1
0.02,0.07,0.98,4.52,-1.22,0.55,22.46,1.48,-40.09,1
0.75,-0.09,-0.68,3.3,-8.24,2.75,31.29,-9.23,11.84,5
0.08,0.01,0.99,8.24,-6.47,0.79,22.89,2.87,-39.86,1
0.82,0.14,0.58,-21.3,19.84,-76.35,34.73,-5.64,-38.1,5
-0.14,0.06,0.98,3.66,-2.01,0.61,18.81,1.01,-41.26,1
0.99,-0.01,0.04,3.91,-3.72,2.08,44.98,-12.6,-3.41,5
-0.97,0.07,0.22,13.55,-49.5,-0.61,-8.45,0.74,-24.34,4
1,0.01,-0.08,-3.66,-3.85,-2.81,45.13,-21.81,-12.16,5
0,0.04,-1.01,3.17,-2.62,1.77,22.88,-23.35,11.21,2
0.02,0.07,0.99,6.04,-2.08,0.73,23.34,1.55,-40.08,1
0.16,0.06,0.92,-9.58,-25.39,9.09,26.23,1.23,-39.18,1
-1.01,-0.05,0.02,7.02,-2.87,1.04,-7.04,-20.85,-13.12,4
-0.02,0.38,-0.93,5.68,-3.3,1.04,21.61,-29.19,4.46,2
0.05,0.11,0.97,0,-29.79,12.02,23.38,0.88,-40.28,1
0.96,-0.26,-0.02,3.17,-2.44,1.34,45.14,-7.81,-2.99,5
-1,0.01,-0.11,-28.63,-0.18,7.14,-10.13,-0.12,-22.46,4
-0.12,0.07,0.98,8.18,3.36,-2.38,19.09,1.2,-40.98,1
-1.03,-0.12,0,51.7,-10.19,-1.34,-8.45,-17.21,-19.79,4
-0.04,0.14,0.99,10.25,-23.5,7.45,21.18,0.06,-41.33,1
-0.01,-0.02,1,4.09,-0.18,6.16,21.17,3.87,-39.87,1
-0.98,-0.01,0.03,-0.31,-0.31,0.67,-8.45,4.66,-19.09,4
0.98,-0.03,-0.02,3.48,-2.81,1.34,45.18,-20.67,-9.33,5
-0.98,0.2,-0.14,12.39,6.35,41.08,-10.89,-2.73,-18.1,4
-0.09,0.94,0.08,8.73,-11.78,4.33,23.89,-32.7,-27.66,3
0,-0.1,-1.01,-22.28,-5.62,5.68,22.69,-18.69,13.4,2
-0.11,-0.28,-0.98,-18.86,-5.74,1.83,20.56,-13.79,14.32,2
-0.13,0.05,0.98,2.32,-4.21,1.1,19.8,1.78,-40.06,1
-0.02,-0.98,-0.27,-36.19,-0.31,6.23,20.91,12.9,4.3,3
0.02,-0.16,0.98,15.2,0.24,0.37,22.33,7.5,-38.76,1
-0.99,-0.07,-0.03,-59.88,-12.21,-3.66,-10.03,-12.28,-23,4
0.87,0.03,0.45,0.49,-16.17,3.42,47.53,-13.48,-14.31,5
-0.8,0.38,0.43,-25.76,-2.2,-28.44,-5.21,-6.9,-33.85,4
-1,-0.05,0.03,24.48,0.61,6.71,-10.02,-15.26,-7.35,4
-0.22,-0.04,-1,22.09,9.03,-0.61,17.98,-19.97,12.3,2
-0.82,-0.46,0.33,15.26,1.46,4.94,2.51,14.39,-25.85,4
-0.02,-0.7,0.72,4.7,-3.17,1.95,22.49,16.87,-24.52,3
0.07,-1.05,-0.11,-13,-3.23,4.39,24.15,15.27,-1.38,3
-0.05,0.01,-1.01,4.15,-6.47,10.62,22.29,-21.59,11.88,2
-0.16,-0.95,0.3,5.98,-6.16,25.33,16.36,19.76,-10.91,3
1,0.08,0.1,6.41,-4.58,1.65,44.92,-2.72,-7.45,5
0.01,-0.05,-1.01,15.2,-4.39,-0.18,24.71,-21.42,11.27,2
-0.97,-0.25,-0.12,10.93,27.59,-28.5,-5.2,10.12,-15.88,4
0.8,-0.24,-0.53,-19.17,4.94,27.77,33.61,-0.72,9.06,5
-0.02,-0.41,-0.92,10.68,-2.62,0.43,23.47,-11.36,14.29,2
0.24,-0.11,-0.97,2.26,-2.2,0.43,28.85,-18.37,12.18,2
-0.04,-0.79,-0.64,6.41,-2.69,1.04,20.62,3.86,10.82,3
-0.01,-0.13,-1.01,-10.31,-3.11,3.17,22.4,-18.31,14.12,2
0.77,0.01,0.62,3.54,-1.89,2.56,46.53,-13.23,-20.46,5
0.01,0,0.99,4.03,-3.6,4.15,20.43,5.11,-38.18,1
0,-0.01,-1.02,1.89,-2.69,3.48,23.06,-21.81,11.32,2
-0.11,0.05,-1.02,14.59,-0.49,-0.37,19.96,-22.77,11.39,2
-1.06,0.06,0.03,-12.82,-5.13,-13.73,-7.74,-5.2,-3.26,4
0.82,-0.09,0.53,9.34,-0.43,6.16,47.97,-9.84,-17.22,5
-0.03,-0.4,-0.95,12.63,-2.2,0.98,21.89,-11.82,14.1,2
-0.99,-0.04,-0.08,5.68,-4.09,1.65,-9.06,-10.33,-24.62,4
0.94,-0.08,0.35,-1.95,15.56,21.3,47.63,-11.88,-11.84,5
0.01,0.1,0.99,-7.02,-1.83,3.85,22.66,0.99,-39.11,1
-0.94,0.21,0.23,15.93,8.79,27.47,-9.51,-0.7,-24.02,4
-0.02,0.01,0.99,3.54,-2.93,1.16,18.35,4.94,-39.36,1
-1,0.16,-0.01,-16.36,-10.93,-3.42,-9.68,1.16,-23.33,4
0.25,0.95,-0.01,-4.09,-5.86,6.71,28.47,-30.79,-24.96,3
0.06,0.05,0.99,5.98,0.61,3.72,23.96,1.1,-40.17,1
-0.92,0.41,-0.11,-2.08,-3.05,-14.71,-11.69,-8.57,-17.94,4
-0.12,0.93,-0.32,-16.05,-9.52,-6.23,20.64,-36.06,-17.46,3
-1,0,0,40.47,0.37,-3.54,-8.65,5.08,-20.28,4
0.82,-0.1,0.53,0.31,-1.89,5.98,47.67,-9.18,-19.75,5
-0.02,0.01,0.99,3.91,-3.23,0.43,18.31,5.19,-39.43,1
1.01,-0.15,0.03,-2.26,-1.59,5.37,43.37,5.14,-12.07,5
-0.03,-0.8,-0.65,5.98,-2.99,1.4,21.75,3.2,10.85,3
0.77,0.05,0.6,5.43,-3.17,2.01,46.44,-13.78,-19.96,5
0.96,-0.19,0,10.31,-2.69,-6.41,44.59,-8.5,-2.71,5
0.01,0.1,0.99,5.07,1.77,0,21.56,1.03,-41.3,1
0.11,0.04,0.95,70.25,-46.75,3.42,25.07,1.34,-38.75,1
0.02,0.04,0.99,7.02,-4.58,-0.12,22.5,2.92,-40.64,1
-0.29,-0.94,0.25,13.18,-0.92,11.6,13.62,18.99,-8.7,3
0.77,0.02,0.62,3.23,-2.08,1.59,46.3,-12.93,-21.08,5
0.03,-1.02,-0.01,21.67,-4.15,-0.85,22.38,16.48,-1.84,3
-0.09,0.03,-1.01,43.33,-3.05,1.16,20.96,-23.16,11.71,2
0.98,-0.2,-0.05,3.54,-2.56,2.01,44.7,-9.03,-0.79,5
-0.01,0,-1.01,1.89,-3.17,1.28,23.3,-22.11,11.51,2
0.86,0.48,-0.06,4.39,-1.46,1.22,41.05,-20.87,0.46,5
-0.12,0.02,0.99,4.15,-3.17,0.98,19.32,2.03,-39.78,1
-0.99,0.2,-0.1,26.12,-7.87,-6.47,-10.63,-5.53,-20.68,4
-0.01,0.01,-1.02,2.5,-4.52,0.67,23.12,-22.25,10.75,2
0.99,0.02,0.1,10.86,-1.59,2.99,42.24,-3.72,-28.56,5
0.83,0.02,-0.49,-8.3,-31.07,-17.27,35.56,-11.54,8.78,5
0.03,0.12,0.98,3.6,-3.05,1.46,22.61,-0.59,-40.01,1
0.24,-0.93,0.33,1.16,-2.69,3.23,27.8,17.91,-11.17,3
0.28,0.9,-0.08,-1.77,-22.09,-23.86,31.53,-32.4,-22.29,3
-0.01,-0.41,-0.89,-26.25,-1.53,7.02,23.68,-11.15,14.06,2
-0.01,-0.69,0.69,-11.29,-5.43,-0.79,22.3,17.92,-23.73,3
-0.98,0.04,0.09,-21.42,-13.55,-30.15,-8.54,3.3,-21.24,4
0.12,0.04,0.98,17.82,13.43,-0.85,25.18,2.09,-39.32,1
0.02,0.13,0.99,4.7,-2.08,0.98,22.25,-0.57,-40.01,1
0.99,-0.01,0.03,4.58,3.11,-0.61,44.4,-12.5,-2.27,5
-0.02,0.38,-0.93,4.27,-3.11,1.53,21.13,-29.93,5.15,2
0.29,-0.08,-0.94,-4.27,-12.27,-6.1,31.67,-21.18,10.63,2
0.7,-0.38,-0.7,-12.15,29.48,51.39,44.51,-8.37,-2.32,5
-0.11,0.94,0.01,-13.79,-15.75,5.25,21.48,-34.07,-26.99,3
0.89,-0.02,0.46,1.34,-16.66,5.55,47.63,-12.96,-14.92,5
-0.99,-0.08,-0.17,6.1,-2.32,1.95,-7.53,7.85,-10.85,4
0.99,-0.03,0.09,3.36,-1.34,-0.43,45.13,-11.99,-4.61,5
-0.23,-0.96,0.25,8.67,8.79,11.84,14.61,19.23,-8.87,3
-1.01,-0.18,-0.07,-8.12,14.83,-20.32,-8.24,5.32,-19.41,4
0.01,0.04,-1.01,5.25,-4.09,1.53,23.65,-23.39,10.3,2
-0.02,0.97,-0.2,46.69,3.6,2.26,22.2,-35.1,-21.8,3
0.18,0.93,-0.33,34,-22.71,-14.89,28.99,-34.89,-18.29,3
0.03,0.21,-1,46.08,0.85,2.08,23.38,-26.72,7.9,2
-0.91,0.35,0.18,28.87,31.86,3.85,-10.28,-5.1,-25.74,4
0.86,-0.02,0.49,-42.36,36.87,-66.35,35.96,-5.21,-36.61,5
0.01,0.09,0.74,-17.03,-9.77,3.3,22.79,-0.27,-40.44,1
0.98,0,0.13,3.42,-2.5,1.16,43.26,-4.05,-28.49,5
-0.02,0.38,-0.94,2.81,-2.01,1.22,21.62,-29.28,4.72,2
0.78,-0.56,-0.04,4.33,22.4,1.71,41.93,1.81,-2.04,5
-0.08,0.26,-0.97,42.72,-5.8,1.71,21,-28.56,7.39,2
0.74,-0.05,-0.69,3.11,-1.4,0.24,31.2,-12.11,11.56,5
0.06,0.02,-1.01,18.62,3.85,1.95,24.35,-21.97,11.65,2
0,0.98,-0.11,3.72,-2.08,0.79,22.97,-35.74,-23.96,3
1,-0.08,0.03,21.3,-5.55,1.28,46.62,-10.52,-3.64,5
-0.22,0.89,-0.05,0.43,-11.11,1.04,20.45,-34.41,-27.03,3
-0.98,0.04,0.05,14.04,37.05,-2.08,-8.83,3.11,-21.75,4
-1.01,0,0.02,12.76,-2.01,5.07,-6.31,-22,-13.94,4
0.07,0.99,-0.06,3.78,-3.3,1.59,24.29,-34.79,-25.37,3
-0.04,-0.79,-0.63,0.61,-2.62,1.71,21.25,3.43,10.53,3
-0.4,0.07,-0.92,-27.89,3.23,-8.36,10.36,-23.79,8.48,2
-0.04,0.06,0.99,-0.12,-5.8,3.05,19.93,2.55,-41.09,1
-1,-0.1,0.03,5.25,-3.36,1.95,-9.08,-17.3,-14.06,4
0.91,0,0.46,25.02,-21.48,1.28,47.4,-13.34,-13.12,5
0,0.98,-0.12,5.62,-3.42,1.22,23.05,-35.33,-23.97,3
0.04,1,0.13,-1.4,-8,23.19,27.51,-32.31,-28.65,3
-1,-0.03,-0.05,-18.37,-1.77,2.08,-8.29,-13.1,-23.72,4
-0.23,0.96,0,-4.09,-9.77,-8.73,19.84,-34.89,-26.12,3
0.13,-0.09,0.99,27.34,-7.02,-2.87,25,4.76,-37.56,1
-0.99,-0.01,0,39.61,-0.73,1.28,-8.69,3.85,-23.11,4
0.97,-0.06,0.05,33.94,-4.15,-6.29,45.36,2.49,-15.14,5
0.13,0.02,0.99,17.82,7.87,-2.87,25.98,1.37,-39.11,1
0.28,-0.88,0.4,6.84,-10.19,6.16,29.47,17.36,-13.6,3
0.97,-0.02,-0.25,-7.87,53.77,-5.98,42.24,-12.43,2.17,5
-0.03,-0.23,0.97,-16.05,-7.14,2.01,21.72,8.02,-36.94,1
-0.4,-0.15,-0.92,-17.03,-20.81,-4.76,11.25,-18.58,11.79,2
0.02,0.89,-0.43,8.12,-4.09,-4.64,22.77,-36.12,-14.32,3
0.98,-0.08,0.02,3.42,-2.2,3.42,43.38,4.15,-11.72,5
-0.04,-0.15,0.98,5.31,-12.15,2.08,22.18,6.04,-37.16,1
-0.03,0.93,-0.32,-20.51,-4.39,3.05,20.53,-34.72,-18.48,3
-1.03,0.09,0.01,4.64,-28.63,-3.17,-8.42,0.83,-21.39,4
1,-0.1,0,36.13,-4.64,-3.17,45.12,-8.13,-2.44,5
-0.05,0.08,0.98,-0.85,-6.47,3.05,20.21,1.71,-40.94,1
-0.02,0.08,-1.01,3.85,-2.81,1.04,23.47,-24.07,9.91,2
-0.01,0.1,-1.02,16.17,-1.16,1.77,23.55,-24.67,10.85,2
0.08,-0.16,-1,4.33,-0.67,-1.71,25,-18.27,11.85,2
0,-0.29,0.95,6.1,-6.71,2.5,23.72,8.02,-35.5,1
0.25,0.17,0.95,27.53,-1.71,-5.25,28.25,-1.62,-39.5,1
-0.99,-0.08,-0.17,5.62,-2.75,2.14,-7.91,8.14,-9.85,4
0.05,-0.08,-0.92,6.96,-5.49,-2.5,24.18,-19.23,11.93,2
-0.01,-0.96,-0.35,13.85,-4.52,3.36,21.83,11.6,6.08,3
-0.34,-0.92,0.26,4.82,-3.85,1.16,11.89,17.7,-9.72,3
0.01,-0.03,-1.04,0.55,-0.73,3.6,23.99,-22.27,10.67,2
0.05,-0.82,0.6,-8.12,-2.56,1.22,23.45,18.62,-20.95,3
-0.85,0.08,-0.53,5.07,-4.33,0.49,-7.82,-0.48,-7.19,4
-0.01,-0.94,0.29,-3.05,9.7,20.02,18.81,19.1,-10.07,3
-0.01,0.08,-1,5.49,-2.38,0.79,23.28,-24.05,9.48,2
-0.99,-0.07,0.01,7.69,-2.01,-2.08,-6.57,-20.8,-13.88,4
-1,0.02,0.09,5.31,-3.85,3.6,-8.11,-5.86,-5.03,4
0.06,0.99,-0.07,3.72,-3.42,1.34,24.08,-35.67,-25.84,3
0.98,0.02,0.06,6.47,-5.49,0.79,45.2,-2.66,-6.27,5
-0.91,-0.33,-0.3,8.18,17.27,-27.77,-4.85,10.05,-14.07,4
-0.03,0.29,-0.96,6.71,-0.61,1.28,23.52,-29.21,6.71,2
0.02,0.03,1.03,6.23,-35.77,5.74,22.85,1.88,-39.16,1
0.05,0.75,-0.61,-12.63,-54.63,-26.67,21.04,-36.71,-8.3,3
-0.04,-0.8,-0.64,2.14,-2.56,2.2,21.79,3.14,10.03,3
-0.97,-0.3,0.19,3.3,8.3,20.26,-2.89,10.66,-24.33,4
0.21,0.07,0.97,2.32,-3.11,2.56,29.74,-0.99,-38.5,1
-0.3,-1.01,0.25,0.98,-8.42,-12.51,14.04,18.3,-7.84,3
-0.09,0.01,0.99,4.76,-3.85,1.59,19.8,2.78,-40.93,1
-0.98,0.07,0.02,-8.42,0.37,-41.5,-10.05,2.88,-19.65,4
0.21,0.07,-0.97,-49.68,-10.07,-7.63,25,-22.86,9.81,2
0,-1,-0.14,58.9,-2.44,-5.31,20.61,15.28,0.85,3
0.83,0.55,-0.02,8.97,-7.08,-1.89,39.43,-25.16,-2.23,5
0.03,0,0.99,6.77,-5.19,1.89,21.47,3.2,-38.17,1
0.01,0.04,-1.01,4.15,-3.36,1.53,23.83,-23.36,11.04,2
0.99,-0.04,0.07,5,-3.85,-0.98,45.42,-12.17,-4.21,5
0.86,-0.52,0.1,15.75,14.04,-12.88,43.53,-0.44,-6.56,5
0,-0.01,-1.01,1.34,-3.42,0.79,23.21,-21.8,11.61,2
-0.15,0.06,0.97,6.71,5.31,3.6,19.65,-0.27,-41.04,1
-1.1,0.09,-0.1,-70.19,-27.89,-3.66,-10.01,3.38,-15.23,4
0.02,0.88,-0.43,7.93,-3.11,-4.39,23.03,-35.75,-14.01,3
-0.3,-0.95,0.23,-0.79,3.91,8.67,13.06,18.38,-7.73,3
0.81,0.34,0.39,-6.47,10.19,-3.17,45.5,-19.85,-14.45,5
-0.12,-0.97,0.29,-2.14,10.62,15.87,16.7,19.17,-10.17,3
-1.01,-0.05,0.07,-54.93,-5.98,-6.1,-12.26,-1.12,-2.95,4
-1.02,0.09,0,13.06,32.23,2.26,-10,1.45,-19.42,4
-0.02,0.38,-0.94,6.71,-2.81,0.79,21.44,-28.92,5.33,2
0.08,0.02,-1,3.97,-2.5,1.95,24.21,-22.49,10.06,2
-0.01,0.1,-1,0.92,-3.05,2.2,23.97,-24.37,9.99,2
0.89,0.46,0.17,-55.79,46.57,7.69,43.62,-15.31,-7.7,5
0.99,-0.04,0.08,4.58,-3.78,0.98,45.39,-12.04,-4.31,5
-1.02,-0.06,0.01,2.2,-1.59,-2.81,-7.1,-20.32,-12.99,4
0.78,-0.42,0.4,-38.51,-74.04,-2.69,45.34,1.17,-11.3,5
0.01,-1.03,-0.07,15.56,-4.88,-11.05,25.05,16.47,-2.06,3
0.03,0.94,0.25,17.76,-0.73,4.64,24.62,-29.9,-32.65,3
0.03,0.95,0.26,10.62,-7.2,10.5,23.71,-29.3,-32.57,3
-0.07,0,0.99,2.75,-5.92,1.65,19.57,3.05,-39.86,1
-0.99,-0.02,-0.07,3.85,-1.65,2.14,-8.98,-10.51,-24.56,4
-0.22,-0.22,-0.96,5.19,-3.23,1.34,17.4,-15.88,13.33,2
0.04,0.36,0.92,-28.38,19.78,-5.92,23.94,-8.04,-42.5,1
-0.01,-0.01,0.99,4.27,-2.87,1.53,21.31,4.53,-40.16,1
0.1,-0.01,0.99,8.48,-8.91,2.2,25.81,2.49,-38.56,1
0.95,0.06,-0.37,-61.22,74.22,-79.1,46.19,-18.38,-16.33,5
-1,0.01,-0.05,16.42,-0.24,11.41,-8.48,4.19,-14.53,4
0.99,-0.02,0.08,3.36,-1.53,2.26,45.1,-12.02,-4.93,5
0.83,-0.34,-0.46,1.53,20.87,23.5,34.33,-1.57,8.98,5
0.05,-0.78,0.62,-6.1,-3.17,2.01,23.44,17.76,-21.33,3
-0.1,0.04,-1.01,-4.58,1.95,1.16,19.86,-22.63,10.99,2
-0.01,0.02,-1,50.17,-0.79,0,23.28,-22.91,11.78,2
-0.02,-0.01,0.99,2.62,-1.16,-1.89,18.71,5.31,-39.32,1
-0.09,-0.99,-0.12,11.05,-4.52,-11.17,22.74,16.14,-1.23,3
0.02,-0.92,-0.3,-42.24,-5.31,11.72,22.53,11.77,5.08,3
-0.29,-0.94,0.27,15.08,12.33,2.62,14.54,19.14,-9.75,3
0.03,0.12,0.99,4.21,-3.78,1.46,22.69,-0.88,-40.69,1
0.01,-1,-0.1,17.94,-3.36,0.31,22.38,15.87,-1.76,3
0.14,-0.98,0.04,23.5,-5.92,-8.79,27.92,15.77,-5.15,3
0.13,0.78,-0.63,9.83,-0.49,4.33,23.32,-37.44,-8.51,3
0.07,0,1.03,-1.16,17.03,0.98,25.38,1.97,-39.89,1
-0.01,0.09,-1,4.33,-2.93,1.22,23.62,-24.11,10.06,2
0.02,-0.04,-1.01,4.52,-2.99,1.1,23.32,-20.34,11.41,2
-0.9,0.2,-0.37,-17.46,-34,-22.03,-10.02,-3.31,-12.15,4
0.2,0.07,0.97,1.04,-3.6,2.69,29.96,-0.71,-38.33,1
0.05,0.03,-1.01,3.48,-4.33,1.28,23.25,-22.88,10.99,2
0.82,0.54,-0.04,0.61,-1.95,-2.56,39.33,-24.87,-0.96,5
-0.2,0.96,-0.07,3.3,0.43,7.08,17.48,-34.9,-25.17,3
0.2,-0.94,0.32,3.6,5,14.71,26.37,17.91,-11.01,3
0,-0.02,-0.99,8.24,-2.38,0.98,23.66,-22.14,11.45,2
0.94,-0.02,0.14,12.21,78,3.17,46.59,-11.29,-7.98,5
0.98,-0.12,0.05,4.7,-3.11,1.4,46.58,-11.07,-5.65,5
-0.02,0.03,1,7.32,-3.54,0.49,22.03,1.42,-39.9,1
-0.02,-0.4,-0.92,3.42,-2.38,1.95,22.57,-11.74,14.67,2
0.03,0.13,0.99,3.6,-3.23,1.1,23.03,-0.45,-40.77,1
0.03,0.93,0.25,13.31,-4.82,7.69,24.3,-29.93,-33.14,3
0.13,0.07,0.97,-3.3,-15.99,5.49,27.34,-0.1,-40.21,1
-0.02,0.38,-0.93,4.52,-2.56,0.37,21.13,-29.1,4.87,2
0.26,-0.34,-0.9,26.98,9.4,-8.3,26.71,-11.39,13.29,2
0.87,0.15,-0.22,-79.83,83.19,-81.54,45.02,-19.81,-18.54,5
0.14,-0.03,-1,-18.37,-12.45,0.31,25.07,-19.78,11.29,2
-0.86,0.15,0.49,-6.23,-20.26,-3.05,-5.83,1.2,-28.58,4
0,-0.08,-1.02,50.11,-1.4,-2.62,23.34,-19.3,12.32,2
0.09,-0.75,0.51,-17.27,-6.71,3.91,24.73,18.2,-17.18,3
-0.02,-0.38,0.93,3.3,-3.48,1.46,22.47,10.44,-33.76,1
0.99,-0.02,-0.05,18.49,-2.56,-2.38,45.4,-21.11,-13.22,5
0.88,0.01,-0.56,-5.49,-49.44,15.63,36.05,-14.05,8.17,5
0.89,-0.27,0.38,41.38,-3.23,-21.97,47.53,-5.98,-11.32,5
0.99,0.09,-0.01,0.73,-0.98,2.87,45.26,-0.17,-14.14,5
0.97,-0.2,-0.06,2.62,-2.5,2.2,44.34,-9.51,-3.26,5
-1.01,-0.1,0.02,12.27,-3.3,-3.66,-9.18,-15.58,-8.63,4
0.98,0.07,0.07,5.19,-3.78,2.14,45.18,-3.27,-6.13,5
0.06,0.01,1,3.11,-2.62,0.92,22.74,3.03,-39.97,1
-0.14,-1.01,0.06,-6.29,-3.42,-14.1,21,18.38,-5.73,3
0.04,0.45,-0.89,27.4,13.31,19.29,24.63,-32.67,1.83,2
-0.02,0.04,0.99,-0.79,-2.69,-0.24,20.97,2.6,-39.42,1
-0.01,0.05,-1.02,-8.42,31.31,0.06,21.92,-23.06,11.12,2
-0.33,-0.04,-0.97,1.16,2.81,1.1,15.76,-22.14,11.57,2
-1,-0.03,-0.1,0.06,-4.15,4.76,-10,-9.18,-24.84,4
-0.36,-0.26,-0.91,0.98,-3.3,1.77,16.02,-15.45,13.73,2
0.07,-0.12,-1.02,6.47,2.08,0.49,25.34,-20.1,12.18,2
-0.25,-0.09,-0.98,1.22,0.73,1.1,16.46,-18.59,12.02,2
-0.32,-0.96,0.28,0.24,-3.3,0.18,12.82,18.59,-9.07,3
0.98,0,0.06,4.21,-3.54,1.59,45.65,-13.12,-4.03,5
0.87,-0.09,-0.37,-66.96,72.08,-90.15,46.35,-16.27,-13.13,5
-0.18,0.98,0.01,5.98,-12.76,7.57,19.95,-34.02,-26.95,3
0.04,0,-1,39.61,-4.27,3.72,23.32,-22.49,11.01,2
-0.93,-0.18,-0.35,4.33,-1.1,4.39,-6.1,8.67,-11.21,4
0.22,0.96,-0.03,2.5,-13.67,17.4,27.83,-32.09,-24.55,3
0.02,0.08,0.99,7.14,-5.31,0.24,22.66,1.1,-40.14,1
-0.99,-0.09,-0.16,6.04,-2.2,1.22,-6.92,7.42,-9.58,4
-0.18,-0.03,0.98,5.74,-3.05,0.55,18.58,3.25,-40.55,1
-0.09,-0.42,-0.91,6.77,-3.36,0.61,20.32,-10.47,13.87,2
-0.03,-0.27,-0.99,-14.04,-3.66,1.71,21.77,-14.29,12.76,2
-0.08,0.82,-0.51,-21,4.7,6.47,23.99,-36.94,-10.35,3
-1,-0.1,0.02,2.81,-1.89,2.14,-9.13,-16.71,-14.94,4
0.08,-0.81,0.61,-16.97,-10.25,-11.96,23.95,18.15,-19.8,3
0.02,0.04,1,8.24,-4.82,0.18,21.84,2.84,-39.84,1
-0.98,0.25,0.13,18.92,13.18,-21,-10.01,-2.38,-22.89,4
-0.15,-0.97,0.26,4.46,4.03,4.15,15.97,19.26,-9.18,3
-0.98,0,-0.04,-18.43,-1.71,-2.56,-9.07,5.18,-14.77,4
0.98,-0.02,0.05,2.44,-6.53,0.73,44.96,-12.62,-3.74,5
-0.36,-0.07,-0.95,4.46,-2.75,1.59,14.97,-21.13,10.69,2
-0.1,0.97,0.01,-3.72,-5.31,7.2,23.17,-34.09,-25.04,3
-0.32,0.29,-0.91,-10.93,0.85,3.3,14.9,-28.41,5.93,2
-0.09,1.01,0.1,-2.5,-18.25,4.88,23.61,-33.51,-28.3,3
0.2,0.92,-0.25,23.56,-3.11,-3.66,28.25,-33.19,-18.88,3
0.07,0.98,-0.08,4.15,-3.54,1.46,24.24,-34.92,-26.7,3
0.87,-0.43,0.18,11.17,0.24,-20.87,45.3,-1.75,-7.6,5
1,0.01,0.06,7.39,7.93,3.23,43.53,-3.58,-26.99,5
0.02,-0.05,-1,3.91,-2.81,0.61,23.28,-20.1,12.39,2
0.29,-0.23,-0.97,39.79,0.31,4.82,31.32,-17.63,11.55,2
-0.94,0.06,-0.15,-11.41,4.33,27.1,-10.36,2.67,-11.4,4
-1.01,-0.07,0.01,5.55,-2.14,2.08,-6.37,-20.65,-13.65,4
0.97,0.06,0.08,7.45,4.94,0.12,45.21,-13.56,-4.36,5
0.79,-0.59,-0.16,1.95,-4.27,-4.88,39.33,2,2.7,5
-0.98,-0.24,0.21,23.44,8.24,-23.74,-9.73,-16.38,-17.68,4
1,-0.06,0.03,69.27,-7.75,4.15,45.95,2.12,-17.22,5
-0.34,-0.05,-0.95,5.13,-3.17,1.34,14.83,-21.29,10.88,2
0.98,-0.08,0.02,47,-7.69,7.45,45.09,1.34,-8.45,5
-1,-0.03,0,0,12.94,-44.8,-9.36,5.18,-19.3,4
0,0.98,-0.11,4.39,-3.11,1.1,22.86,-34.55,-23.93,3
-1.03,-0.01,0,-29.85,-12.63,6.59,-9.25,3.77,-17.16,4
-0.01,0.98,0.03,-1.53,-3.05,0.55,22.96,-32.92,-27.58,3
0,-0.04,-0.96,0.73,3.23,0.43,22.79,-21.68,10.28,2
-1,-0.01,-0.04,-5.62,-3.91,1.59,-9.02,-11.29,-26.42,4
0.98,-0.02,0.05,6.04,-6.41,2.08,45.37,-12.05,-4.99,5
-0.06,0.2,0.96,12.88,9.58,0.18,22.94,-4,-42.58,1
0.01,0.04,-1.01,3.66,-2.75,1.65,23.67,-23.72,10.99,2
-1.01,-0.04,0.04,5.74,-0.55,1.28,-11.28,-16.24,-9.57,4
-0.94,-0.02,0.3,30.58,-12.51,29.36,-6.02,5.15,-24.61,4
-0.99,-0.09,-0.14,7.02,0.49,5.25,-7.93,8.29,-9.38,4
-0.87,0.09,-0.49,20.2,33.63,19.9,-10.3,-1.46,-7.42,4
-0.03,-0.78,-0.62,16.17,-4.39,0.67,21.15,3.69,10.86,3
-1,0,-0.12,-9.95,-32.53,-5.74,-9.42,3.8,-18.52,4
-1.37,-0.02,0.12,103.21,46.94,50.35,-10.56,-8.56,-22.12,4
-1,-0.02,-0.05,-3.11,-2.32,1.89,-9.3,-10.96,-25,4
-0.04,-0.82,-0.64,4.33,-3.36,2.44,21.36,3.76,10.9,3
0.97,-0.18,-0.04,2.26,-3.6,1.34,44.19,-8.3,-1.71,5
-0.16,0.96,-0.18,-6.23,5.55,-1.46,20.25,-36.01,-21.84,3
0.18,-0.07,-0.98,5.43,7.81,3.11,26.97,-19.92,12.28,2
0.96,-0.22,-0.01,6.59,-4.27,-1.95,44.68,-7.8,-3.12,5
-1,-0.03,-0.07,-8,4.09,-7.57,-8.14,5.62,-12.5,4
-0.14,0.06,0.98,2.75,-1.77,0.85,18.53,0.67,-40.93,1
0.84,-0.55,-0.16,12.82,-0.37,-22.95,40.11,-0.15,0.6,5
0,-1.05,-0.04,71.47,-4.21,-7.02,21.02,17.42,-1.64,3
1.02,0.05,0.26,7.75,31.49,-6.47,46.62,-13.53,-7.53,5
-0.02,-1.02,-0.09,3.54,-2.44,1.28,19.95,16.69,-0.11,3
0.97,-0.21,-0.04,3.36,-2.69,2.26,45.23,-8.95,-2.54,5
0.12,-1.03,-0.13,20.08,-8.18,-9.28,27.32,14.64,-1.26,3
0.99,-0.01,0.09,7.75,2.75,0.55,43.15,-3.34,-26.06,5
-0.05,0.03,-1.01,3.36,-2.81,1.53,22.12,-22.38,12.05,2
-0.98,-0.1,-0.07,2.87,-7.81,1.53,-10.5,-9.88,-23.85,4
-0.36,-0.26,-0.92,-2.44,-3.42,0.37,16.64,-15.71,13.96,2
-0.99,-0.09,-0.16,5.86,-1.22,-0.61,-6.79,7.14,-8.64,4
0.02,-0.07,-0.99,-28.63,-1.46,10.99,24.05,-20.15,12.06,2
-0.94,-0.24,-0.24,8.3,13.18,-21.42,-5.79,8.97,-14.7,4
0.99,-0.03,0.01,3.66,-2.38,0.79,44.98,-12.43,-3.33,5
-0.09,0.84,-0.56,-4.03,2.38,3.54,23.23,-37.92,-9.38,3
-1.01,-0.14,0.07,73.06,-5.92,10.86,-8.87,-0.37,-24.38,4
0.01,-1,0.03,4.64,-3.23,-0.92,21.06,17.79,-3.12,3
0.07,0.95,-0.17,-1.46,4.52,-7.81,25.6,-35.46,-22.77,3
-1.01,-0.08,0.01,3.78,-2.08,3.78,-9.39,-17.93,-14.06,4
-0.01,-0.01,1,4.09,-2.81,1.4,20.9,4.08,-40.41,1
0.03,0.86,-0.48,-1.46,-1.53,3.72,23.01,-36.79,-14.11,3
-0.95,0.25,-0.09,10.38,8.42,4.82,-10.47,-5.31,-20.41,4
-0.04,0.24,-0.97,-2.44,-2.87,0.43,20.74,-26.87,7.4,2
0.29,-0.95,0.22,3.54,-4.03,1.04,29.53,16.91,-7.76,3
-0.02,0.08,-1,3.66,-2.87,1.16,23.39,-24.79,10.42,2
-0.01,0.97,0.12,20.94,-5.92,-1.95,22.01,-31.87,-29.64,3
-0.99,-0.11,0.04,11.54,-2.08,-2.08,-9.4,-16.66,-16.14,4
-0.06,-0.96,0.19,-8,1.04,26.79,18.08,19.64,-6.43,3
0.04,0.95,0.23,25.02,-1.95,2.01,24.93,-30.1,-31.81,3
-0.19,0.98,-0.01,0.61,-18.86,-3.42,19.75,-34.39,-26.51,3
0.97,0.13,0.2,0.37,34.12,5.62,46.51,-16.31,-6.67,5
-0.01,-0.65,0.78,-0.06,-3.66,0.79,22.19,15.99,-26.48,3
-0.01,-0.01,0.99,4.58,-2.87,1.53,22.77,1.77,-39.9,1
-0.21,0.09,0.97,14.77,12.7,6.16,18.23,-1.27,-40.8,1
0.08,0.02,-1.01,4.39,-3.11,1.04,24.15,-22.56,10.67,2
-0.08,0.13,0.99,-8.73,-12.08,4.03,19.84,-0.23,-41.47,1
0.18,-0.57,-0.8,1.04,-6.71,5.98,27.71,-5.03,11.99,2
-0.97,0,0.18,-169.49,-9.28,1.04,-8.03,-20.13,-14.71,4
0.27,-0.34,-0.89,39.25,-5.68,7.57,31.42,-14.14,12.82,2
-0.2,-0.06,-0.97,27.4,5.43,-3.78,18.71,-19.23,12.46,2
0.87,-0.36,-0.33,13.18,-17.4,-57.07,39.29,-5.52,5.14,5
0.2,-0.91,0.35,3.78,-7.45,7.63,25.83,19.24,-11.01,3
1,-0.06,0,82.03,-16.3,-2.08,46.17,-5.35,-4.05,5
-0.98,0.15,-0.09,4.88,-13.12,-18.13,-10.41,-2.66,-21.01,4
0.97,-0.25,-0.03,3.97,-3.3,3.17,45.1,-8.51,-1.87,5
0,0.98,-0.12,5.62,-3.6,1.28,22.24,-35.13,-23.63,3
-0.02,-0.32,0.94,0.18,-3.66,1.77,21.5,10.17,-34.97,1
0.79,-0.01,-0.62,20.45,-35.89,5.07,32.74,-12.66,10.18,5
0.39,0,0.92,1.46,-2.93,1.16,31.14,3.19,-36.25,1
0.98,0.08,0.01,7.02,-2.69,0.06,44.8,0.61,-14.32,5
-0.07,0.99,-0.06,-1.53,-6.47,-12.7,23.55,-34.42,-23.89,3
0.06,-0.12,-1.01,10.74,-2.01,-0.31,24.67,-18.41,11.46,2
0.94,-0.07,-0.33,-14.1,38.88,-5.8,39.97,-10.07,5.85,5
0.86,0.23,0.41,-1.65,-5.92,36.32,46.29,-19.42,-14.66,5
-0.97,0.2,0.01,-12.7,-7.69,-28.56,-10.99,-1.4,-21.18,4
0.02,0.18,-0.99,40.28,-3.91,-0.92,23.23,-25.57,8.84,2
-0.02,-0.33,0.95,0.85,-3.05,1.04,21.37,10.08,-34.27,1
-0.92,-0.3,0.27,13.73,21.48,21.06,-1.67,9.9,-27.12,4
-0.93,0.05,0.37,-9.89,-38.02,-2.81,-5.03,2.12,-28.26,4
-0.97,-0.05,0.02,-4.09,22.77,-25.15,-8.76,-15.03,-21.63,4
0.95,-0.25,0.15,-0.49,-15.01,9.95,46.48,-7.21,-7.02,5
0.98,0.08,0.07,6.84,-3.05,0.73,45.46,-3.34,-7.43,5
0.03,0.03,-0.99,-0.24,-15.93,-0.43,23.46,-21.39,10.71,2
-0.99,-0.01,0,-55.48,5.92,7.2,-10.16,-17.13,-11.28,4
0.83,0.34,0.45,-7.02,1.34,0.98,45.45,-20.28,-13.95,5
0.02,0.15,0.99,-0.43,-4.46,2.5,21.96,-0.83,-39.86,1
0.87,0,0.42,7.87,-57.8,-11.54,47.58,-14.48,-13.43,5
0.97,-0.2,-0.04,4.58,-6.41,1.53,45.15,-9.28,-1.78,5
0.69,-0.36,-0.65,8.91,-23.01,-33.87,29.39,-3.89,10.78,5
-0.01,0.09,-1,4.82,-2.14,-0.98,23.66,-23.83,10.1,2
0.8,-0.6,-0.17,2.99,-5.8,9.52,39.82,1.73,1,5
0.08,0.03,-1.01,4.39,-2.56,1.53,24.29,-22.81,10.49,2
1,-0.03,0.02,3.54,-3.85,2.08,45.32,-12.12,-2.16,5
0.79,-0.52,-0.32,4.03,-4.46,-0.79,37.7,-0.74,5.48,5
-0.89,-0.22,0.41,18.37,21.3,15.87,-3.53,10.91,-24.78,4
-0.04,0.42,0.9,2.99,-3.48,1.1,21.59,-9.42,-42.46,1
-0.2,0.97,-0.11,1.77,-3.72,-1.46,18.64,-35.5,-23.79,3
-0.04,-0.78,-0.64,2.93,-3.91,2.69,21.61,3.36,11.78,3
-1.01,-0.05,0.01,-0.06,-2.32,4.52,-6.73,-20.31,-13.54,4
0.97,-0.15,-0.02,2.99,-2.62,2.99,46.14,-10.02,-2.89,5
-0.03,-0.02,0.99,6.47,-4.03,-8.67,21.22,2.75,-39.77,1
-1,-0.14,0.1,41.38,-11.54,-16.11,-9.62,-6.7,-5.19,4
-0.01,-0.01,1,4.03,-3.17,1.77,21.77,1.54,-39.06,1
0.99,0.07,0.06,3.85,-3.54,-2.56,45.41,-2.83,-8.3,5
-0.06,0.87,-0.49,2.75,0.31,2.56,24.07,-37.78,-11.83,3
-0.24,-0.02,-0.98,3.42,-2.87,1.4,17.3,-20.53,11.77,2
-0.01,-0.01,-1.01,9.03,-2.08,0,23.12,-21.53,11.34,2
-0.99,-0.05,-0.05,-63.72,-7.2,-1.1,-8.52,7.2,-12.34,4
-0.24,-0.93,0.33,3.23,-8.06,-8.85,16.54,19.84,-12.88,3
0.28,0.17,-0.96,19.53,-0.55,2.75,30.1,-27.31,7.53,2
0.99,-0.01,-0.05,-5,-8.12,-0.31,44.76,-20.76,-11.3,5
-0.15,0.04,-0.99,-9.09,0.24,1.28,18.58,-21.37,10.93,2
0.15,-0.88,0.44,-24.66,-14.1,-15.69,25.96,17.99,-15.06,3
-0.02,-0.04,1,1.65,-27.71,8.48,22.41,2.59,-39.78,1
-0.88,-0.1,-0.51,14.83,12.08,-9.34,-7.91,5.75,-7.9,4
0.84,-0.13,0.52,-3.78,-4.15,18.49,47.49,-7.59,-16.63,5
0.01,0.94,0.28,20.02,-4.27,13.37,23.51,-28.98,-32.91,3
0.97,-0.13,-0.1,8.85,79.96,29.79,44.09,-11.18,-1.98,5
0.99,0.09,-0.02,0.73,-2.93,2.44,44.07,0.43,-13.5,5
0.96,-0.23,-0.02,3.97,-2.26,1.4,45.19,-8.2,-3.1,5
0.01,-0.76,0.65,34.73,1.53,2.38,21.86,18.12,-22.66,3
-0.01,0.39,-0.93,5.86,-2.75,1.77,22.09,-30.53,4.58,2
0.73,-0.45,0.49,-21.24,37.84,67.57,44.97,1.72,-17.83,5
-0.98,-0.15,0.11,13.06,25.82,21.79,-5.81,6.45,-23.3,4
0,0.98,-0.11,3.23,-3.17,1.4,23.19,-34.73,-23.18,3
0.25,-0.07,-0.93,15.75,5.98,-3.85,30.94,-21.67,10.13,2
-0.33,-0.91,0.26,9.34,-2.81,2.08,11.83,17.99,-9.35,3
-0.01,-0.01,0.99,3.66,-3.17,2.08,22.88,1.62,-39.49,1
-1.02,0.15,0.08,-68.66,8.3,10.62,-8.15,-12.59,-3.75,4
-1,-0.02,-0.05,-0.37,-0.06,-0.85,-9,-10.56,-25.02,4
0.09,-0.16,-0.98,-1.46,-4.46,5.68,25.31,-19.43,13.09,2
0.98,0,0.11,8.91,-2.93,1.4,42.58,-4.82,-28.38,5
0.29,-0.94,0.2,2.75,-0.73,2.08,29.28,16.39,-7.43,3
-0.02,-1.01,-0.08,4.58,-3.05,1.65,19.54,16.24,-0.74,3
-1,-0.08,0.09,-18.43,-46.39,-27.71,-7.07,5.73,-21.07,4
-0.38,0.18,-0.92,3.78,-0.92,1.34,11.69,-27.21,7.06,2
0.97,-0.28,-0.03,4.46,-3.85,2.44,44.78,-7.75,-3.28,5
-1,0.05,0.07,49.74,-9.28,-16.6,-9.19,4.26,-12.38,4
0.81,0.04,0.57,4.21,-3.48,1.46,46.37,-14.34,-18.12,5
-0.03,0.37,0.92,27.77,-1.04,-1.53,21.41,-7.26,-42.49,1
0.01,-0.23,-1,47.06,-2.26,-3.05,22.78,-15.39,14.66,2
-0.98,-0.02,-0.11,6.35,14.04,-21.67,-9.23,3.5,-19.3,4
-0.3,0.92,0.17,23.99,18.19,6.35,17.42,-31.04,-28.44,3
-0.03,-0.01,0.99,3.85,-3.42,-13.06,22.29,2.83,-38.94,1
-0.12,0.09,-0.99,-12.82,11.41,1.77,19.69,-23.29,10.16,2
-0.02,0.46,0.87,8.97,-3.05,1.71,23.58,-11.45,-42.24,1
0.02,0.13,-0.99,-45.35,-30.09,5.31,23.6,-24.02,10.02,2
-0.01,-0.7,0.71,4.21,-1.71,1.59,22.16,17.09,-24.73,3
0.23,0.51,0.81,16.42,-2.44,4.76,29.42,-12.62,-40.73,1
0.23,0.35,0.9,12.27,-3.42,-1.4,28.98,-7.65,-41.48,1
-0.98,-0.04,0.07,65,-2.99,5.43,-8.62,6.32,-17.96,4
0.21,0.51,0.81,2.69,-4.94,1.4,29.02,-13.53,-41.15,1
0.03,0.09,0.99,4.64,-3.3,1.53,21.9,1.81,-40.49,1
-0.98,-0.01,0.08,69.89,-9.28,0.49,-9.66,-7.1,-4.03,4
-0.94,0.09,-0.32,-3.72,-30.46,4.88,-9.92,0.39,-12.27,4
-0.96,-0.15,-0.06,2.08,25.82,-51.15,-6.68,8.4,-16.88,4
-0.18,0.01,0.98,7.14,-4.7,1.95,18.64,2.27,-41,1
-0.38,0.18,-0.91,4.76,-1.65,0.49,11.49,-27.19,7.14,2
0.01,0.98,-0.1,-0.79,-2.56,2.01,23.23,-34.52,-24.88,3
0.18,-0.9,0.41,-8.48,-11.41,-9.95,26.65,18.55,-14.22,3
-1,0.01,0.06,3.3,-4.82,-0.85,-8.89,-5.36,-1.95,4
0.18,0.97,-0.08,41.69,-27.89,-6.35,26.45,-33.42,-24.24,3
0.07,0.99,-0.09,2.81,-3.97,1.46,24.08,-35.63,-25,3
-0.08,0.19,0.98,-6.35,0.55,1.71,22.08,-3.91,-41.78,1
0.14,0.11,0.98,3.54,3.91,1.77,27.28,-1.66,-40.11,1
0,-0.11,0.98,17.4,-0.67,-0.79,21.35,6.76,-37.63,1
0.98,0.02,0.07,11.54,-5.98,0.31,43.35,-7.3,-27.69,5
-0.35,-0.26,-0.91,1.83,-3.3,-2.87,16,-15.32,14,2
-1.01,-0.01,-0.12,-0.79,-8.79,5.86,-9.12,-9.36,-24.02,4
0.03,-1.02,0.06,36.87,-4.88,-3.23,22.41,17.49,-4.2,3
0.84,0.4,-0.16,3.05,-7.2,24.05,40.5,-22.68,-0.93,5
0.05,1.01,0.02,6.16,-9.89,15.38,23.65,-32.87,-26.84,3
0.3,-0.93,0.27,-11.84,-2.99,3.3,29.61,16.55,-9.27,3
0.07,0.38,-0.92,-25.02,-12.94,5.43,24.41,-31.71,5.03,2
-0.18,-0.06,-1.02,24.35,-28.26,7.32,19.24,-20.78,12.11,2
0.02,0.09,-1,44.01,-0.98,-2.44,23.73,-23.27,10.14,2
0.13,-0.12,-0.99,-1.77,12.15,5.25,27.29,-19.38,11.8,2
-0.37,0.09,-0.94,-8.3,-0.12,2.38,13.42,-22.39,10,2
-0.99,-0.06,0.11,7.2,0.37,0,-8.01,6.34,-19.46,4
1,-0.08,0.05,5.31,-3.23,0.55,42.91,3.97,-11.5,5
0.06,0.99,-0.02,4.64,-3.91,-10.5,23.03,-34.9,-27.03,3
0.1,-0.08,-1.02,9.83,-22.89,2.01,25.57,-20.48,11.87,2
0.98,0.09,-0.02,3.3,-2.44,1.65,44.81,0.4,-13.09,5
0.94,-0.1,0.3,-2.08,-18.98,17.94,48.11,-10.12,-11.47,5
0,-0.89,-0.43,-23.44,-2.99,6.71,21.95,8.87,8.19,3
-0.95,-0.07,0.32,3.78,-6.9,35.58,-6.21,6.65,-23.46,4
-0.01,0.96,0.25,-13.24,-2.87,0.18,23.28,-30.26,-32.6,3
0.96,-0.27,-0.03,1.89,-3.72,2.99,45.34,-8.02,-2.93,5
-0.36,-0.06,-0.95,2.81,-3.17,2.08,15.63,-21.47,11.25,2
0.99,-0.03,0.05,-2.32,-0.67,5.74,45.87,1.21,-12,5
-0.08,-0.18,-0.99,0.43,-21.24,0.24,20.2,-17.46,14.61,2
0.99,-0.02,0.02,3.54,-3.72,1.89,45.03,-11.99,-2.5,5
-0.02,0.06,-0.99,-2.32,-7.45,0,23.34,-23.75,9.86,2
0.13,-0.01,-0.98,-22.71,-16.54,-3.72,24.83,-20.57,9.94,2
-0.04,-1.01,-0.11,9.77,-4.58,-9.03,23.83,16.05,-1.21,3
0.82,-0.58,-0.16,8.54,-3.66,-6.65,39.59,2.25,0.37,5
0.02,0.12,0.98,5,-2.56,1.95,22.94,-0.57,-40.22,1
-0.94,0.38,0.13,48.28,25.27,-1.46,-10.36,-7.17,-25.59,4
0.26,-0.01,0.96,4.39,-13.79,1.71,28.25,3.28,-36.51,1
0.05,0,0.98,4.21,-2.32,0.79,22.35,2.62,-39.33,1
-0.36,0.1,-0.91,13.49,-1.16,16.11,13.68,-28.3,6.53,2
-0.04,-1.01,-0.12,2.26,-7.75,-7.02,24.13,16.52,-1.83,3
0.77,-0.38,0.57,10.99,-7.63,18.8,45.65,-0.13,-19.8,5
0.02,0.12,0.98,6.23,-3.54,1.46,22.58,0.21,-40.05,1
0.63,0.76,-0.13,-14.1,-74.34,-56.88,35.93,-31.82,-25.26,5
0,0.98,-0.12,3.54,-2.87,1.1,23.13,-35.17,-23.65,3
0.14,0.17,0.89,100.71,-39.43,2.5,27.08,-4.66,-41.16,1
0.95,-0.2,0.04,8.61,61.71,40.65,44.95,-9.3,-5.4,5
0,-0.01,-1.01,4.52,-3.36,1.16,23.57,-21.8,11.41,2
0.99,-0.02,0.02,4.64,-5.07,1.65,45.28,-12.68,-3.97,5
0.21,0.97,-0.01,6.9,8.06,-2.87,28.81,-33.59,-27.09,3
-1,0.01,0.07,6.29,-1.28,1.1,-8.18,-4.99,-4.17,4
1,-0.05,-0.04,25.51,-5.13,-1.34,45.51,-21.22,-12.51,5
-0.05,0.01,-1.01,2.75,-2.56,0.73,21.44,-21.04,11.32,2
-0.94,-0.2,0.02,38.51,8.97,-7.63,-9.44,-16.58,-15.52,4
0.98,-0.1,0.07,3.72,-3.6,2.01,45.89,-11.21,-4.08,5
0.96,-0.21,-0.02,6.9,-3.23,-2.99,44.74,-8.08,-2.31,5
0.93,-0.09,-0.26,-0.43,61.65,-5.92,41.27,-11.05,3.31,5
-0.99,-0.1,0.01,-0.49,-1.59,0.24,-11.61,-14.94,-9.29,4
0.98,0.06,0.07,7.75,-0.79,2.01,44.91,-2.97,-7.26,5
-0.05,0.02,0.96,-2.99,21.18,-0.06,22.34,1.62,-39.65,1
0.34,0.92,-0.16,2.26,-2.69,3.66,32.24,-33.13,-21.94,3
0.9,-0.35,0.25,21.24,7.02,-15.32,46.62,-4.09,-9.39,5
-0.96,-0.1,-0.04,-46.26,-1.1,-0.55,-9.53,-17.66,-15.04,4
0,-0.13,0.98,-5.74,-6.77,0.85,21.91,6.79,-38.72,1
-0.89,0.14,0.42,18.07,-4.52,39.18,-6.38,1.39,-30.53,4
-0.01,0.1,-0.99,3.97,-2.5,1.04,23.49,-24.93,9.23,2
0.92,-0.03,-0.3,-51.94,-61.1,52.12,39.09,-8.03,5.96,5
-0.35,-0.27,-0.91,2.81,-4.33,5.86,16.41,-14.87,13.5,2
0.98,0.09,-0.01,1.71,-3.54,-3.05,44.63,0.88,-12.29,5
1.05,0.12,0.1,-11.54,-23.5,14.28,45.7,-11.88,-3.69,5
-1,-0.08,0.05,-35.46,11.96,18.43,-11.46,-11.84,-8.72,4
-0.01,-0.4,-0.9,-60.24,-11.11,10.86,22.02,-10.6,13.65,2
-0.06,0.04,0.99,6.23,-3.48,0.55,20.31,4.31,-39.12,1
-0.11,0.29,-0.96,-115.23,35.22,13.43,20.51,-28.32,6.99,2
-0.18,-0.98,0.27,3.42,11.6,30.09,15.3,18.82,-8.96,3
0,-1.09,-0.11,14.47,-8.91,-18.07,19.76,17.3,-2.65,3
0.97,-0.19,-0.05,4.88,-3.17,2.08,44.89,-9.13,-2.37,5
-0.34,-0.88,0.43,8.42,-2.01,-1.89,15.67,19.97,-15.1,3
-0.14,0.06,0.98,1.4,8.54,-0.55,19.47,-0.16,-41.14,1
-1,0,0.08,6.35,-8.67,0.73,-8.23,-5.38,-4.27,4
-0.01,-0.02,1,4.15,-6.29,-1.4,20.89,3.97,-38.89,1
0.85,-0.41,-0.35,5.49,19.29,7.2,39.92,-4.77,4.92,5
0.94,-0.27,0.19,7.57,-20.69,-2.62,46.37,-5.66,-8.26,5
-0.02,0.02,1,4.39,-3.48,1.34,21.64,2.56,-39.44,1
-0.02,-0.41,-0.93,6.1,-3.42,1.1,23.1,-10.73,15.26,2
-0.96,0.02,0.04,-4.09,0.85,-4.39,-9.36,3.77,-16.97,4
-0.23,-0.23,-0.98,0.73,-3.54,3.72,17.29,-14.76,14.59,2
1,-0.09,0.04,8.36,7.08,-4.82,46.09,-11.55,-3.75,5
0.88,0.45,0.03,-49.26,50.17,-15.93,41.93,-13.24,-5.62,5
-0.02,0.03,0.99,5.74,-3.72,2.99,20.62,3.39,-39.72,1
0.96,0.24,-0.51,-3.42,22.89,-8.42,34.97,-14.11,9.62,5
-0.35,-0.05,-0.95,4.88,-2.01,0.55,15.15,-21.48,12.06,2
0.04,1,0.1,55.11,-3.91,-9.34,24.28,-32.23,-29.8,3
0.97,-0.07,0,41.87,-5.86,-0.12,47.01,-6.99,-3.53,5
0.07,0.98,-0.07,5.37,-3.11,1.4,24.39,-35.12,-26.22,3
-0.07,0.46,-0.9,10.38,-4.52,1.4,21.31,-32.59,1.72,2
0,-0.01,-1,0.18,-2.01,3.11,23.33,-21.22,11.12,2
0.9,-0.15,-0.35,17.09,-23.56,-46.45,38.72,-8.08,5.9,5
0.98,-0.02,0.14,7.32,-3.23,0.24,42.99,-3.36,-27.04,5
-0.04,-0.79,-0.65,4.52,-1.83,0.61,20.81,4.28,11.43,3
0.01,0.2,0.96,35.77,-37.41,10.44,23.16,-3.54,-40.64,1
-0.89,0.02,0.41,11.78,23.19,9.83,-5.14,5.22,-29.05,4
0.94,0,0.23,3.36,87.89,-16.24,47.33,-11.85,-8.53,5
-0.02,0.02,0.99,2.44,-2.56,1.4,21.29,2.32,-38.81,1
0.84,0.53,-0.05,6.41,-2.62,-2.2,39.55,-24.74,-1.29,5
-0.99,-0.04,-0.04,-38.33,1.59,6.77,-9.47,-14.29,-23.32,4
0.99,0.06,0.04,1.04,-1.04,0.24,45.03,-3.08,-6.43,5
-0.01,-0.02,-1.01,-2.38,-3.36,0.31,22.33,-20.74,11.51,2
-0.01,-0.02,-1.01,2.14,-3.36,0.79,22.88,-21.52,11.16,2
0.82,-0.39,-0.4,-2.26,-2.26,1.04,38.66,-5.14,5.73,5
0.92,0.05,-0.3,7.02,-38.33,33.02,39.16,-3.87,4.48,5
-1.01,0.01,0.09,91.49,-2.87,-2.32,-9.24,4.98,-11.29,4
-0.98,0.2,0.08,21.97,17.88,-18.74,-10.13,-0.6,-21.74,4
-1.02,-0.09,0.1,12.21,-5.19,-3.42,-10.03,-16.28,-8.63,4
-0.02,-0.37,-0.94,-1.65,-2.38,1.77,22.84,-12.26,14.82,2
-0.93,-0.38,0.03,0.31,-30.52,-4.21,-1.86,12.94,-16.49,4
-0.18,0.04,0.97,-8.12,-1.16,0.43,18.52,1.86,-40.76,1
0.15,0.35,-0.92,-52.61,-9.4,-2.75,23.14,-29.92,4.35,2
0.97,0.22,0.05,49.8,-68.85,21.12,44.36,-10.44,-3.85,5
-0.95,0.02,0.07,57.43,-4.64,1.1,-8.54,2.72,-9.79,4
-0.04,-0.02,-1.03,11.11,-7.2,1.28,22.73,-21.87,12.5,2
0.01,0.02,0.97,12.88,4.7,-3.17,21.11,3.42,-39.61,1
0.11,0.26,0.93,-0.85,-52.98,12.82,25.51,-4.38,-41.92,1
0.18,0.93,-0.34,-1.1,10.8,18.62,27.59,-33.56,-17.25,3
0.45,-0.41,0.81,-26.67,45.41,-37.23,31.34,12.76,-28.58,5
0.2,0.52,0.81,-2.81,-8.48,8.36,28.93,-13.33,-41.42,1
0.99,-0.06,0.11,-0.12,-7.75,4.58,45.53,-12.45,-3.69,5
0.01,0.04,-1.01,3.91,-2.93,1.46,23.32,-23.19,10.84,2
-1.01,-0.09,0.06,-10.93,0.85,1.65,-9,-17.19,-14.29,4
0.12,0.1,0.94,10.99,8.42,-3.42,25.68,-0.46,-38.92,1
0.01,0.98,-0.09,1.95,-2.14,0.24,23.19,-34.66,-23.95,3
0.29,-0.92,0.28,3.23,-3.54,0.18,29.8,16.54,-9.67,3
0.59,-0.29,0.7,-72.45,86.49,-29.17,32.58,11.43,-28.11,5
0.94,0.03,0.3,17.15,18.13,32.47,47.57,-14.05,-10.25,5
0.88,-0.26,-0.39,-10.5,-9.09,-60.36,32.95,8.52,3.22,5
0.18,0,0.98,-28.75,-25.88,9.64,26.25,2.98,-38.68,1
0,0.98,-0.11,4.94,-2.56,0.85,22.91,-34.81,-24.04,3
0.03,-0.05,-1.01,4.76,-2.2,0.85,23.78,-20.17,11.25,2
-0.96,0.03,0.18,19.96,35.89,0.85,-7.9,3.15,-22.85,4
-0.04,-0.79,-0.66,4.21,-2.14,0.73,21.59,3.41,12.04,3
0.23,0.48,0.83,0.55,-4.21,1.83,29.09,-11.85,-41.65,1
0,-1,-0.21,49.07,-0.73,-2.5,21.98,14.22,0.93,3
0.03,-0.06,-1.01,3.72,-3.3,1.4,23.3,-20.02,10.66,2
0.98,-0.07,0.03,7.75,-4.76,12.02,45.53,2.33,-13.24,5
0.97,0.06,0.05,5.68,-4.15,2.93,45.8,-3.44,-6.95,5
0.17,0.01,0.97,6.16,12.45,-2.87,27.8,0.65,-37.72,1
0.03,-0.19,0.98,0.92,-4.21,0.31,22.18,8.19,-36.33,1
-0.09,0.08,0.99,4.46,-1.16,1.16,19.19,1.14,-40.65,1
-0.94,-0.14,-0.3,-3.11,-17.33,-9.28,-7.07,6.27,-11.72,4
-0.21,-0.23,-0.97,17.64,-8.61,4.58,17.83,-15.22,13.85,2
-0.02,-0.01,0.99,3.48,-2.99,-4.15,22.06,2.28,-40,1
0.07,-0.79,0.62,4.39,-3.6,1.71,23.41,18.73,-21.15,3
0.96,0.01,0.05,48.03,-9.34,-6.59,45.51,-0.9,-7.6,5
0.82,-0.52,0.03,-16.05,-63.42,15.26,42.93,0.79,-3.47,5
-0.89,-0.26,-0.41,15.99,11.29,29.11,-5.54,10.07,-10.74,4
-0.88,0.44,-0.15,-0.43,-5.62,-3.23,-10.73,-10.3,-17.75,4
0,-0.17,-1,-23.07,-2.99,-0.12,22.77,-17.07,12.16,2
0.88,0.43,-0.1,7.81,11.72,13.24,41.47,-20.17,-1.2,5
0.02,0.06,0.98,-2.01,-1.95,1.53,23.33,1.42,-41.06,1
-0.01,0.09,-1.01,4.21,-3.11,2.08,23.17,-24.04,9.91,2
0.02,0.06,-0.99,23.68,15.14,-2.87,23.18,-22.8,10.36,2
-0.06,0.09,0.99,3.91,5.86,-0.73,19.74,0.74,-41.17,1
-0.23,0.11,0.97,3.11,-2.5,0.92,17.55,-1.7,-41.41,1
-0.03,-0.79,-0.64,3.11,-4.03,1.28,19.85,4.11,10.83,3
-0.05,0.05,-1.01,-2.81,-5.55,1.22,23.46,-24.52,12.19,2
-0.02,0.15,-0.98,31.86,-1.53,0.55,23.94,-26.46,9.91,2
-0.02,-0.16,0.97,-40.16,-17.27,0.06,21.48,6.19,-36.56,1
0.08,0.9,-0.43,4.15,-5.25,-21.73,24.77,-35.44,-14.38,3
-1,-0.02,-0.04,-0.43,-3.6,0.61,-8.29,5.35,-15.16,4
-0.03,-0.01,0.98,7.51,-16.97,2.38,20.61,2.89,-40.03,1
0.98,-0.02,-0.02,6.59,-1.89,1.71,44.15,-2.42,-23.93,5
0.99,-0.06,0.02,0.06,-1.22,4.82,43.04,4.54,-12.07,5
-0.9,-0.33,0.31,17.15,13.85,20.26,-0.84,11.56,-27.12,4
0.02,-1.03,-0.03,17.15,-3.85,-0.12,22.36,16.15,-2.34,3
-0.03,-0.32,-0.98,-15.38,-0.37,1.83,21.79,-13.51,13.88,2
0.81,0.57,-0.08,9.46,-5.49,3.91,38.76,-25.96,-0.98,5
0.07,-0.08,-0.99,-17.7,-22.22,4.27,25.17,-20.1,11.18,2
-1,0.33,-0.06,30.7,20.87,-16.11,-10.88,-7.47,-20.95,4
-0.98,-0.09,-0.16,3.91,-1.34,0.49,-7.67,7.93,-9.94,4
-1,-0.04,-0.08,2.93,-3.05,1.34,-9.12,-10.1,-25.28,4
0.98,0.11,0.11,6.59,0.06,4.82,45.09,-2.97,-5.87,5
0.81,0.04,0.57,4.46,-3.05,1.28,46.53,-13.75,-18.62,5
0.01,0.97,0,12.82,10.86,26.61,25.16,-32.78,-25.5,3
-0.36,-0.07,-0.95,4.94,-4.03,1.04,15.58,-21.73,12.49,2
0.98,-0.11,0.05,2.32,-3.54,2.38,45.74,-11.07,-4.27,5
-1,-0.16,0.01,2.44,-5.43,-0.31,-11.52,5.36,-2.65,4
0.06,-0.03,0.99,0.37,-5.55,3.72,22.69,3.32,-39.48,1
-0.04,0.87,-0.49,-9.03,5.43,1.53,19.95,-35.01,-13.49,3
0.06,0.04,-1,8.12,-2.75,0.18,24.62,-23.03,10,2
0.22,0.3,0.91,-32.9,7.93,5.49,28.58,-5.81,-40.61,1
-0.96,0.24,-0.08,16.48,2.93,7.39,-10.88,-5.76,-20.28,4
-1,-0.04,-0.11,-57.8,-5.31,-0.12,-9.8,-15.14,-20.07,4
-0.12,-0.99,0.15,-7.2,7.93,31.62,16.61,18.82,-6.16,3
-0.39,0.18,-0.92,3.85,-4.64,1.77,11.91,-27.17,7.09,2
0.74,0.4,-0.58,60.79,-30.88,64.7,47.03,-16.58,-7.59,5
0.13,0.42,-0.92,51.64,8.12,-2.99,26.16,-30.58,2.88,2
0.03,0.07,0.99,7.08,-3.3,1.04,21.96,1.68,-38.95,1
0.02,0.07,0.97,1.71,-1.28,2.01,22.67,1.68,-40.5,1
0.29,-0.41,-0.88,-3.11,-4.03,0.67,27.12,-9.62,13.05,2
0.02,-0.16,0.99,-3.91,-5.8,1.46,21.7,6.58,-38.28,1
0,0.98,-0.11,2.38,-2.75,1.1,22.84,-34.79,-23.82,3
-1.03,0,0.09,53.59,1.28,15.14,-9.99,-16.58,-16.06,4
